[{"id": "OVS031", "dir": "./data/OVS031/csv", "blocks": [{"dir": "./data/OVS031/csv/OVS031_block_0.json", "block": 0, "similarity": [{"rt": 9375.980000011623, "stimulus": "[A] option 1, [L] option 2, [G] neither", "key_press": 71, "name": "choice", "trial_type": "html-keyboard-response", "trial_index": 14, "time_elapsed": 101037, "internal_node_id": "0.0-14.0", "response": "neither", "certainty": "high", "char": "G", "melody_type": "chromatic", "order": ["swapped", "shifted"], "probe_pitches": [-4, -5, -1, 1, 5, 6, 7, 10], "shifted_pitches": [-4, -5, -1, 1, 4, 6, 7, 10], "swapped_pitches": [-4, -5, -1, 5, 1, 6, 7, 10], "shift_direction": "down", "question_num": "01", "has_decoy": false, "subject": "OVS031", "sona": "121093", "block": 0, "time": "2020-06-24T17:19:04.267Z"}, {"rt": 3486.689999990631, "stimulus": "[A] option 1, [L] option 2, [G] neither", "key_press": 65, "name": "choice", "trial_type": "html-keyboard-response", "trial_index": 27, "time_elapsed": 120596, "internal_node_id": "0.0-27.0", "response": "1st", "certainty": "high", "char": "A", "melody_type": "diatonic", "order": ["swapped", "shifted"], "probe_pitches": [4, 0, -3, -1, 2, 5, 7, 11], "shifted_pitches": [4, 0, -3, -1, 1, 5, 7, 11], "swapped_pitches": [4, 0, -3, 2, -1, 5, 7, 11], "shift_direction": "down", "question_num": "11", "has_decoy": false, "subject": "OVS031", "sona": "121093", "block": 0, "time": "2020-06-24T17:19:04.267Z"}]}, {"dir": "./data/OVS031/csv/OVS031_block_1.json", "block": 1, "similarity": [{"rt": 4530.064999999013, "stimulus": "[A] option 1, [L] option 2, [G] neither", "key_press": 71, "name": "choice", "trial_type": "html-keyboard-response", "trial_index": 11, "time_elapsed": 31721, "internal_node_id": "0.0-11.0", "subject": "OVS031", "sona": "121093", "block": 1, "time": "2020-06-24T17:26:28.667Z", "response": "neither", "certainty": "high", "char": "G", "melody_type": "diatonic", "order": ["swapped", "shifted"], "probe_pitches": [-3, -1, 2, 0, 4, 7, 11, 9], "shifted_pitches": [-3, -1, 2, 0, 3, 7, 11, 9], "swapped_pitches": [-3, -1, 2, 4, 0, 7, 11, 9], "shift_direction": "down", "question_num": "01", "has_decoy": false}, {"rt": 1556.250000023283, "stimulus": "[A] option 1, [L] option 2, [G] neither", "key_press": 65, "name": "choice", "trial_type": "html-keyboard-response", "trial_index": 24, "time_elapsed": 50958, "internal_node_id": "0.0-24.0", "subject": "OVS031", "sona": "121093", "block": 1, "time": "2020-06-24T17:26:28.667Z", "response": "1st", "certainty": "high", "char": "A", "melody_type": "chromatic", "order": ["swapped", "shifted"], "probe_pitches": [-1, 2, 1, 3, 4, 8, 12, 14], "shifted_pitches": [-1, 2, 1, 3, 5, 8, 12, 14], "swapped_pitches": [-1, 2, 1, 4, 3, 8, 12, 14], "shift_direction": "up", "question_num": "11", "has_decoy": false}, {"rt": 1363.1099999765866, "stimulus": "[A] option 1, [L] option 2, [G] neither", "key_press": 76, "name": "choice", "trial_type": "html-keyboard-response", "trial_index": 37, "time_elapsed": 69623, "internal_node_id": "0.0-37.0", "subject": "OVS031", "sona": "121093", "block": 1, "time": "2020-06-24T17:26:28.667Z", "response": "2nd", "certainty": "high", "char": "L", "melody_type": "chromatic", "order": ["shifted", "swapped"], "probe_pitches": [5, 8, 9, 6, 4, 7, 11, 10], "shifted_pitches": [5, 8, 9, 6, 3, 7, 11, 10], "swapped_pitches": [5, 8, 9, 6, 4, 7, 11, 10], "shift_direction": "down", "question_num": "21", "has_decoy": true, "decoy_position": "swapped"}, {"rt": 1098.4300000127405, "stimulus": "[A] option 1, [L] option 2, [G] neither", "key_press": 76, "name": "choice", "trial_type": "html-keyboard-response", "trial_index": 50, "time_elapsed": 89908, "internal_node_id": "0.0-50.0", "subject": "OVS031", "sona": "121093", "block": 1, "time": "2020-06-24T17:26:28.667Z", "response": "2nd", "certainty": "high", "char": "L", "melody_type": "chromatic", "order": ["swapped", "shifted"], "probe_pitches": [15, 16, 12, 14, 10, 8, 7, 3], "shifted_pitches": [15, 16, 12, 14, 10, 8, 7, 3], "swapped_pitches": [15, 16, 12, 10, 14, 8, 7, 3], "shift_direction": "down", "question_num": "31", "has_decoy": true, "decoy_position": "shifted"}, {"rt": 4511.2849999568425, "stimulus": "[A] option 1, [L] option 2, [G] neither", "key_press": 71, "name": "choice", "trial_type": "html-keyboard-response", "trial_index": 63, "time_elapsed": 111127, "internal_node_id": "0.0-63.0", "subject": "OVS031", "sona": "121093", "block": 1, "time": "2020-06-24T17:26:28.667Z", "response": "neither", "certainty": "high", "char": "G", "melody_type": "diatonic", "order": ["shifted", "swapped"], "probe_pitches": [7, 9, 5, 2, 4, 0, -3, -5], "shifted_pitches": [7, 9, 5, 1, 4, 0, -3, -5], "swapped_pitches": [7, 9, 5, 4, 2, 0, -3, -5], "shift_direction": "down", "question_num": "41", "has_decoy": false}, {"rt": 3836.409999988973, "stimulus": "[A] option 1, [L] option 2, [G] neither", "key_press": 71, "name": "choice", "trial_type": "html-keyboard-response", "trial_index": 76, "time_elapsed": 132991, "internal_node_id": "0.0-76.0", "subject": "OVS031", "sona": "121093", "block": 1, "time": "2020-06-24T17:26:28.667Z", "response": "neither", "certainty": "high", "char": "G", "melody_type": "chromatic", "order": ["shifted", "swapped"], "probe_pitches": [6, 3, 4, 2, -2, -1, -4, 0], "shifted_pitches": [6, 3, 4, 2, -3, -1, -4, 0], "swapped_pitches": [6, 3, 4, -2, 2, -1, -4, 0], "shift_direction": "down", "question_num": "51", "has_decoy": false}, {"rt": 1258.1450000288896, "stimulus": "[A] option 1, [L] option 2, [G] neither", "key_press": 76, "name": "choice", "trial_type": "html-keyboard-response", "trial_index": 89, "time_elapsed": 151337, "internal_node_id": "0.0-89.0", "subject": "OVS031", "sona": "121093", "block": 1, "time": "2020-06-24T17:26:28.667Z", "response": "2nd", "certainty": "high", "char": "L", "melody_type": "diatonic", "order": ["shifted", "swapped"], "probe_pitches": [14, 16, 12, 9, 11, 7, 5, 2], "shifted_pitches": [14, 16, 12, 9, 10, 7, 5, 2], "swapped_pitches": [14, 16, 12, 11, 9, 7, 5, 2], "shift_direction": "down", "question_num": "61", "has_decoy": false}, {"rt": 1088.400000007823, "stimulus": "[A] option 1, [L] option 2, [G] neither", "key_press": 65, "name": "choice", "trial_type": "html-keyboard-response", "trial_index": 102, "time_elapsed": 170158, "internal_node_id": "0.0-102.0", "subject": "OVS031", "sona": "121093", "block": 1, "time": "2020-06-24T17:26:28.667Z", "response": "1st", "certainty": "high", "char": "A", "melody_type": "chromatic", "order": ["swapped", "shifted"], "probe_pitches": [10, 11, 8, 6, 9, 13, 14, 16], "shifted_pitches": [10, 11, 8, 5, 9, 13, 14, 16], "swapped_pitches": [10, 11, 8, 9, 6, 13, 14, 16], "shift_direction": "down", "question_num": "71", "has_decoy": false}, {"rt": 991.6099999682046, "stimulus": "[A] option 1, [L] option 2, [G] neither", "key_press": 76, "name": "choice", "trial_type": "html-keyboard-response", "trial_index": 115, "time_elapsed": 188482, "internal_node_id": "0.0-115.0", "subject": "OVS031", "sona": "121093", "block": 1, "time": "2020-06-24T17:26:28.667Z", "response": "2nd", "certainty": "high", "char": "L", "melody_type": "diatonic", "order": ["swapped", "shifted"], "probe_pitches": [16, 17, 14, 12, 9, 5, 4, 7], "shifted_pitches": [16, 17, 14, 13, 9, 5, 4, 7], "swapped_pitches": [16, 17, 14, 9, 12, 5, 4, 7], "shift_direction": "up", "question_num": "81", "has_decoy": false}, {"rt": 2837.050000031013, "stimulus": "[A] option 1, [L] option 2, [G] neither", "key_press": 71, "name": "choice", "trial_type": "html-keyboard-response", "trial_index": 128, "time_elapsed": 208085, "internal_node_id": "0.0-128.0", "subject": "OVS031", "sona": "121093", "block": 1, "time": "2020-06-24T17:26:28.667Z", "response": "neither", "certainty": "high", "char": "G", "melody_type": "diatonic", "order": ["swapped", "shifted"], "probe_pitches": [11, 9, 12, 16, 14, 17, 7, 4], "shifted_pitches": [11, 9, 12, 15, 14, 17, 7, 4], "swapped_pitches": [11, 9, 12, 14, 16, 17, 7, 4], "shift_direction": "down", "question_num": "91", "has_decoy": false}, {"rt": 974.8300000210293, "stimulus": "[A] option 1, [L] option 2, [G] neither", "key_press": 65, "name": "choice", "trial_type": "html-keyboard-response", "trial_index": 141, "time_elapsed": 227297, "internal_node_id": "0.0-141.0", "subject": "OVS031", "sona": "121093", "block": 1, "time": "2020-06-24T17:26:28.667Z", "response": "1st", "certainty": "high", "char": "A", "melody_type": "diatonic", "order": ["swapped", "shifted"], "probe_pitches": [4, 7, 9, 11, 14, 17, 16, 12], "shifted_pitches": [4, 7, 9, 11, 15, 17, 16, 12], "swapped_pitches": [4, 7, 9, 14, 11, 17, 16, 12], "shift_direction": "up", "question_num": "101", "has_decoy": false}, {"rt": 1888.669999956619, "stimulus": "[A] option 1, [L] option 2, [G] neither", "key_press": 71, "name": "choice", "trial_type": "html-keyboard-response", "trial_index": 154, "time_elapsed": 246270, "internal_node_id": "0.0-154.0", "subject": "OVS031", "sona": "121093", "block": 1, "time": "2020-06-24T17:26:28.667Z", "response": "neither", "certainty": "high", "char": "G", "melody_type": "chromatic", "order": ["shifted", "swapped"], "probe_pitches": [10, 8, 7, 6, 3, 5, 2, 0], "shifted_pitches": [10, 8, 7, 6, 4, 5, 2, 0], "swapped_pitches": [10, 8, 7, 3, 6, 5, 2, 0], "shift_direction": "up", "question_num": "111", "has_decoy": false}, {"rt": 1893.5650000348687, "stimulus": "[A] option 1, [L] option 2, [G] neither", "key_press": 65, "name": "choice", "trial_type": "html-keyboard-response", "trial_index": 167, "time_elapsed": 265720, "internal_node_id": "0.0-167.0", "subject": "OVS031", "sona": "121093", "block": 1, "time": "2020-06-24T17:26:28.667Z", "response": "1st", "certainty": "high", "char": "A", "melody_type": "chromatic", "order": ["swapped", "shifted"], "probe_pitches": [9, 11, 8, 5, 7, 10, 13, 15], "shifted_pitches": [9, 11, 8, 4, 7, 10, 13, 15], "swapped_pitches": [9, 11, 8, 7, 5, 10, 13, 15], "shift_direction": "down", "question_num": "121", "has_decoy": false}, {"rt": 1147.0400000107475, "stimulus": "[A] option 1, [L] option 2, [G] neither", "key_press": 76, "name": "choice", "trial_type": "html-keyboard-response", "trial_index": 180, "time_elapsed": 284135, "internal_node_id": "0.0-180.0", "subject": "OVS031", "sona": "121093", "block": 1, "time": "2020-06-24T17:26:28.667Z", "response": "2nd", "certainty": "high", "char": "L", "melody_type": "chromatic", "order": ["swapped", "shifted"], "probe_pitches": [15, 14, 10, 12, 8, 5, 7, 6], "shifted_pitches": [15, 14, 10, 11, 8, 5, 7, 6], "swapped_pitches": [15, 14, 10, 8, 12, 5, 7, 6], "shift_direction": "down", "question_num": "131", "has_decoy": false}, {"rt": 1213.7199999997392, "stimulus": "[A] option 1, [L] option 2, [G] neither", "key_press": 71, "name": "choice", "trial_type": "html-keyboard-response", "trial_index": 193, "time_elapsed": 301715, "internal_node_id": "0.0-193.0", "subject": "OVS031", "sona": "121093", "block": 1, "time": "2020-06-24T17:26:28.667Z", "response": "neither", "certainty": "high", "char": "G", "melody_type": "diatonic", "order": ["swapped", "shifted"], "probe_pitches": [17, 14, 16, 12, 11, 7, 9, 5], "shifted_pitches": [17, 14, 16, 12, 11, 7, 9, 5], "swapped_pitches": [17, 14, 16, 11, 12, 7, 9, 5], "shift_direction": "up", "question_num": "141", "has_decoy": true, "decoy_position": "shifted"}, {"rt": 4705.879999964964, "stimulus": "[A] option 1, [L] option 2, [G] neither", "key_press": 71, "name": "choice", "trial_type": "html-keyboard-response", "trial_index": 206, "time_elapsed": 323814, "internal_node_id": "0.0-206.0", "subject": "OVS031", "sona": "121093", "block": 1, "time": "2020-06-24T17:26:28.667Z", "response": "neither", "certainty": "high", "char": "G", "melody_type": "diatonic", "order": ["shifted", "swapped"], "probe_pitches": [-5, -1, 2, 4, 5, 7, 9, 11], "shifted_pitches": [-5, -1, 2, 4, 6, 7, 9, 11], "swapped_pitches": [-5, -1, 2, 5, 4, 7, 9, 11], "shift_direction": "up", "question_num": "151", "has_decoy": false}, {"rt": 1196.6600000159815, "stimulus": "[A] option 1, [L] option 2, [G] neither", "key_press": 71, "name": "choice", "trial_type": "html-keyboard-response", "trial_index": 219, "time_elapsed": 342625, "internal_node_id": "0.0-219.0", "subject": "OVS031", "sona": "121093", "block": 1, "time": "2020-06-24T17:26:28.667Z", "response": "neither", "certainty": "high", "char": "G", "melody_type": "chromatic", "order": ["shifted", "swapped"], "probe_pitches": [3, 7, 9, 6, 10, 12, 15, 14], "shifted_pitches": [3, 7, 9, 6, 11, 12, 15, 14], "swapped_pitches": [3, 7, 9, 10, 6, 12, 15, 14], "shift_direction": "up", "question_num": "161", "has_decoy": false}, {"rt": 4669.049999967683, "stimulus": "[A] option 1, [L] option 2, [G] neither", "key_press": 65, "name": "choice", "trial_type": "html-keyboard-response", "trial_index": 232, "time_elapsed": 365148, "internal_node_id": "0.0-232.0", "subject": "OVS031", "sona": "121093", "block": 1, "time": "2020-06-24T17:26:28.667Z", "response": "1st", "certainty": "high", "char": "A", "melody_type": "diatonic", "order": ["shifted", "swapped"], "probe_pitches": [11, 9, 7, 5, 2, -1, -3, -5], "shifted_pitches": [11, 9, 7, 6, 2, -1, -3, -5], "swapped_pitches": [11, 9, 7, 2, 5, -1, -3, -5], "shift_direction": "up", "question_num": "171", "has_decoy": false}, {"rt": 2446.4950000401586, "stimulus": "[A] option 1, [L] option 2, [G] neither", "key_press": 76, "name": "choice", "trial_type": "html-keyboard-response", "trial_index": 245, "time_elapsed": 388092, "internal_node_id": "0.0-245.0", "subject": "OVS031", "sona": "121093", "block": 1, "time": "2020-06-24T17:26:28.667Z", "response": "2nd", "certainty": "high", "char": "L", "melody_type": "diatonic", "order": ["shifted", "swapped"], "probe_pitches": [5, 2, 4, 7, 11, 12, 9, 14], "shifted_pitches": [5, 2, 4, 8, 11, 12, 9, 14], "swapped_pitches": [5, 2, 4, 7, 11, 12, 9, 14], "shift_direction": "up", "question_num": "181", "has_decoy": true, "decoy_position": "swapped"}, {"rt": 1689.554999989923, "stimulus": "[A] option 1, [L] option 2, [G] neither", "key_press": 71, "name": "choice", "trial_type": "html-keyboard-response", "trial_index": 258, "time_elapsed": 406041, "internal_node_id": "0.0-258.0", "subject": "OVS031", "sona": "121093", "block": 1, "time": "2020-06-24T17:26:28.667Z", "response": "neither", "certainty": "high", "char": "G", "melody_type": "chromatic", "order": ["shifted", "swapped"], "probe_pitches": [-3, 0, -2, -5, -1, 2, 1, 3], "shifted_pitches": [-3, 0, -2, -4, -1, 2, 1, 3], "swapped_pitches": [-3, 0, -2, -1, -5, 2, 1, 3], "shift_direction": "up", "question_num": "191", "has_decoy": false}]}, {"dir": "./data/OVS031/csv/OVS031_block_2.json", "block": 2, "similarity": [{"rt": 1399.6099999640137, "stimulus": "[A] option 1, [L] option 2, [G] neither", "key_press": 65, "name": "choice", "trial_type": "html-keyboard-response", "trial_index": 11, "time_elapsed": 22000, "internal_node_id": "0.0-11.0", "subject": "OVS031", "sona": "121093", "block": 2, "time": "2020-06-24T17:34:01.526Z", "response": "1st", "certainty": "high", "char": "A", "melody_type": "chromatic", "order": ["shifted", "swapped"], "probe_pitches": [8, 10, 12, 13, 11, 9, 6, 3], "shifted_pitches": [8, 10, 12, 14, 11, 9, 6, 3], "swapped_pitches": [8, 10, 12, 11, 13, 9, 6, 3], "shift_direction": "up", "question_num": "01", "has_decoy": false}, {"rt": 1143.7950000399724, "stimulus": "[A] option 1, [L] option 2, [G] neither", "key_press": 71, "name": "choice", "trial_type": "html-keyboard-response", "trial_index": 24, "time_elapsed": 40255, "internal_node_id": "0.0-24.0", "subject": "OVS031", "sona": "121093", "block": 2, "time": "2020-06-24T17:34:01.526Z", "response": "neither", "certainty": "high", "char": "G", "melody_type": "chromatic", "order": ["swapped", "shifted"], "probe_pitches": [-4, -3, -5, -2, 0, 3, 5, 9], "shifted_pitches": [-4, -3, -5, -2, -1, 3, 5, 9], "swapped_pitches": [-4, -3, -5, 0, -2, 3, 5, 9], "shift_direction": "down", "question_num": "11", "has_decoy": false}, {"rt": 835.0150000187568, "stimulus": "[A] option 1, [L] option 2, [G] neither", "key_press": 71, "name": "choice", "trial_type": "html-keyboard-response", "trial_index": 37, "time_elapsed": 57367, "internal_node_id": "0.0-37.0", "subject": "OVS031", "sona": "121093", "block": 2, "time": "2020-06-24T17:34:01.526Z", "response": "neither", "certainty": "high", "char": "G", "melody_type": "diatonic", "order": ["shifted", "swapped"], "probe_pitches": [2, 0, 4, 7, 9, 12, 11, 14], "shifted_pitches": [2, 0, 4, 7, 9, 12, 11, 14], "swapped_pitches": [2, 0, 4, 9, 7, 12, 11, 14], "shift_direction": "up", "question_num": "21", "has_decoy": true, "decoy_position": "shifted"}, {"rt": 1436.0749999759719, "stimulus": "[A] option 1, [L] option 2, [G] neither", "key_press": 65, "name": "choice", "trial_type": "html-keyboard-response", "trial_index": 50, "time_elapsed": 76511, "internal_node_id": "0.0-50.0", "subject": "OVS031", "sona": "121093", "block": 2, "time": "2020-06-24T17:34:01.526Z", "response": "1st", "certainty": "high", "char": "A", "melody_type": "diatonic", "order": ["shifted", "swapped"], "probe_pitches": [11, 14, 16, 17, 12, 9, 7, 5], "shifted_pitches": [11, 14, 16, 17, 13, 9, 7, 5], "swapped_pitches": [11, 14, 16, 12, 17, 9, 7, 5], "shift_direction": "up", "question_num": "31", "has_decoy": false}, {"rt": 1657.2150000138208, "stimulus": "[A] option 1, [L] option 2, [G] neither", "key_press": 71, "name": "choice", "trial_type": "html-keyboard-response", "trial_index": 63, "time_elapsed": 117501, "internal_node_id": "0.0-63.0", "subject": "OVS031", "sona": "121093", "block": 2, "time": "2020-06-24T17:34:01.526Z", "response": "neither", "certainty": "high", "char": "G", "melody_type": "diatonic", "order": ["swapped", "shifted"], "probe_pitches": [4, 0, -3, -5, -1, 2, 5, 7], "shifted_pitches": [4, 0, -3, -6, -1, 2, 5, 7], "swapped_pitches": [4, 0, -3, -1, -5, 2, 5, 7], "shift_direction": "down", "question_num": "41", "has_decoy": false}, {"rt": 1858.7750000297092, "stimulus": "[A] option 1, [L] option 2, [G] neither", "key_press": 65, "name": "choice", "trial_type": "html-keyboard-response", "trial_index": 76, "time_elapsed": 135646, "internal_node_id": "0.0-76.0", "subject": "OVS031", "sona": "121093", "block": 2, "time": "2020-06-24T17:34:01.526Z", "response": "1st", "certainty": "high", "char": "A", "melody_type": "chromatic", "order": ["shifted", "swapped"], "probe_pitches": [-2, 0, -3, -5, -1, 2, 4, 3], "shifted_pitches": [-2, 0, -3, -4, -1, 2, 4, 3], "swapped_pitches": [-2, 0, -3, -1, -5, 2, 4, 3], "shift_direction": "up", "question_num": "51", "has_decoy": false}, {"rt": 1204.4299999834038, "stimulus": "[A] option 1, [L] option 2, [G] neither", "key_press": 76, "name": "choice", "trial_type": "html-keyboard-response", "trial_index": 89, "time_elapsed": 154352, "internal_node_id": "0.0-89.0", "subject": "OVS031", "sona": "121093", "block": 2, "time": "2020-06-24T17:34:01.526Z", "response": "2nd", "certainty": "high", "char": "L", "melody_type": "diatonic", "order": ["swapped", "shifted"], "probe_pitches": [-3, 0, -1, 2, 5, 4, 7, 9], "shifted_pitches": [-3, 0, -1, 1, 5, 4, 7, 9], "swapped_pitches": [-3, 0, -1, 5, 2, 4, 7, 9], "shift_direction": "down", "question_num": "61", "has_decoy": false}, {"rt": 1273.5649999813177, "stimulus": "[A] option 1, [L] option 2, [G] neither", "key_press": 71, "name": "choice", "trial_type": "html-keyboard-response", "trial_index": 102, "time_elapsed": 171775, "internal_node_id": "0.0-102.0", "subject": "OVS031", "sona": "121093", "block": 2, "time": "2020-06-24T17:34:01.526Z", "response": "neither", "certainty": "high", "char": "G", "melody_type": "diatonic", "order": ["swapped", "shifted"], "probe_pitches": [17, 16, 12, 14, 11, 9, 7, 4], "shifted_pitches": [17, 16, 12, 15, 11, 9, 7, 4], "swapped_pitches": [17, 16, 12, 14, 11, 9, 7, 4], "shift_direction": "up", "question_num": "71", "has_decoy": true, "decoy_position": "swapped"}, {"rt": 1923.595000000205, "stimulus": "[A] option 1, [L] option 2, [G] neither", "key_press": 65, "name": "choice", "trial_type": "html-keyboard-response", "trial_index": 115, "time_elapsed": 189856, "internal_node_id": "0.0-115.0", "subject": "OVS031", "sona": "121093", "block": 2, "time": "2020-06-24T17:34:01.526Z", "response": "1st", "certainty": "high", "char": "A", "melody_type": "diatonic", "order": ["swapped", "shifted"], "probe_pitches": [4, 7, 11, 9, 12, 16, 14, 17], "shifted_pitches": [4, 7, 11, 8, 12, 16, 14, 17], "swapped_pitches": [4, 7, 11, 12, 9, 16, 14, 17], "shift_direction": "down", "question_num": "81", "has_decoy": false}, {"rt": 1075.5699999863282, "stimulus": "[A] option 1, [L] option 2, [G] neither", "key_press": 76, "name": "choice", "trial_type": "html-keyboard-response", "trial_index": 128, "time_elapsed": 207926, "internal_node_id": "0.0-128.0", "subject": "OVS031", "sona": "121093", "block": 2, "time": "2020-06-24T17:34:01.526Z", "response": "2nd", "certainty": "high", "char": "L", "melody_type": "chromatic", "order": ["swapped", "shifted"], "probe_pitches": [2, 1, 4, 3, -1, -3, -2, -5], "shifted_pitches": [2, 1, 4, 3, 0, -3, -2, -5], "swapped_pitches": [2, 1, 4, -1, 3, -3, -2, -5], "shift_direction": "up", "question_num": "91", "has_decoy": false}, {"rt": 692.9799999925308, "stimulus": "[A] option 1, [L] option 2, [G] neither", "key_press": 76, "name": "choice", "trial_type": "html-keyboard-response", "trial_index": 141, "time_elapsed": 225625, "internal_node_id": "0.0-141.0", "subject": "OVS031", "sona": "121093", "block": 2, "time": "2020-06-24T17:34:01.526Z", "response": "2nd", "certainty": "high", "char": "L", "melody_type": "chromatic", "order": ["swapped", "shifted"], "probe_pitches": [-4, 0, 2, 5, 8, 6, 7, 3], "shifted_pitches": [-4, 0, 2, 4, 8, 6, 7, 3], "swapped_pitches": [-4, 0, 2, 8, 5, 6, 7, 3], "shift_direction": "down", "question_num": "101", "has_decoy": false}, {"rt": 1060.929999977816, "stimulus": "[A] option 1, [L] option 2, [G] neither", "key_press": 71, "name": "choice", "trial_type": "html-keyboard-response", "trial_index": 154, "time_elapsed": 245622, "internal_node_id": "0.0-154.0", "subject": "OVS031", "sona": "121093", "block": 2, "time": "2020-06-24T17:34:01.526Z", "response": "neither", "certainty": "high", "char": "G", "melody_type": "chromatic", "order": ["shifted", "swapped"], "probe_pitches": [11, 10, 6, 8, 4, 5, 2, -2], "shifted_pitches": [11, 10, 6, 8, 3, 5, 2, -2], "swapped_pitches": [11, 10, 6, 4, 8, 5, 2, -2], "shift_direction": "down", "question_num": "111", "has_decoy": false}, {"rt": 860.8649999951012, "stimulus": "[A] option 1, [L] option 2, [G] neither", "key_press": 71, "name": "choice", "trial_type": "html-keyboard-response", "trial_index": 167, "time_elapsed": 263133, "internal_node_id": "0.0-167.0", "subject": "OVS031", "sona": "121093", "block": 2, "time": "2020-06-24T17:34:01.526Z", "response": "neither", "certainty": "high", "char": "G", "melody_type": "diatonic", "order": ["swapped", "shifted"], "probe_pitches": [5, 7, 9, 11, 14, 17, 16, 12], "shifted_pitches": [5, 7, 9, 11, 13, 17, 16, 12], "swapped_pitches": [5, 7, 9, 14, 11, 17, 16, 12], "shift_direction": "down", "question_num": "121", "has_decoy": false}, {"rt": 1638.7499999837019, "stimulus": "[A] option 1, [L] option 2, [G] neither", "key_press": 71, "name": "choice", "trial_type": "html-keyboard-response", "trial_index": 180, "time_elapsed": 281747, "internal_node_id": "0.0-180.0", "subject": "OVS031", "sona": "121093", "block": 2, "time": "2020-06-24T17:34:01.526Z", "response": "neither", "certainty": "high", "char": "G", "melody_type": "chromatic", "order": ["shifted", "swapped"], "probe_pitches": [-3, 1, -1, -4, -5, -2, 2, 0], "shifted_pitches": [-3, 1, -1, -4, -5, -2, 2, 0], "swapped_pitches": [-3, 1, -1, -5, -4, -2, 2, 0], "shift_direction": "down", "question_num": "131", "has_decoy": true, "decoy_position": "shifted"}, {"rt": 985.2299999911338, "stimulus": "[A] option 1, [L] option 2, [G] neither", "key_press": 71, "name": "choice", "trial_type": "html-keyboard-response", "trial_index": 193, "time_elapsed": 299162, "internal_node_id": "0.0-193.0", "subject": "OVS031", "sona": "121093", "block": 2, "time": "2020-06-24T17:34:01.526Z", "response": "neither", "certainty": "high", "char": "G", "melody_type": "chromatic", "order": ["swapped", "shifted"], "probe_pitches": [2, 5, 1, -3, 0, 4, 6, 8], "shifted_pitches": [2, 5, 1, -2, 0, 4, 6, 8], "swapped_pitches": [2, 5, 1, 0, -3, 4, 6, 8], "shift_direction": "up", "question_num": "141", "has_decoy": false}, {"rt": 1270.8650000276975, "stimulus": "[A] option 1, [L] option 2, [G] neither", "key_press": 71, "name": "choice", "trial_type": "html-keyboard-response", "trial_index": 206, "time_elapsed": 317209, "internal_node_id": "0.0-206.0", "subject": "OVS031", "sona": "121093", "block": 2, "time": "2020-06-24T17:34:01.526Z", "response": "neither", "certainty": "high", "char": "G", "melody_type": "diatonic", "order": ["shifted", "swapped"], "probe_pitches": [5, 4, 2, -1, -5, -3, 0, 7], "shifted_pitches": [5, 4, 2, -1, -4, -3, 0, 7], "swapped_pitches": [5, 4, 2, -5, -1, -3, 0, 7], "shift_direction": "up", "question_num": "151", "has_decoy": false}, {"rt": 1887.2799999662675, "stimulus": "[A] option 1, [L] option 2, [G] neither", "key_press": 71, "name": "choice", "trial_type": "html-keyboard-response", "trial_index": 219, "time_elapsed": 335685, "internal_node_id": "0.0-219.0", "subject": "OVS031", "sona": "121093", "block": 2, "time": "2020-06-24T17:34:01.526Z", "response": "neither", "certainty": "high", "char": "G", "melody_type": "chromatic", "order": ["shifted", "swapped"], "probe_pitches": [2, 4, 8, 10, 12, 13, 14, 16], "shifted_pitches": [2, 4, 8, 10, 11, 13, 14, 16], "swapped_pitches": [2, 4, 8, 12, 10, 13, 14, 16], "shift_direction": "down", "question_num": "161", "has_decoy": false}, {"rt": 1261.739999987185, "stimulus": "[A] option 1, [L] option 2, [G] neither", "key_press": 76, "name": "choice", "trial_type": "html-keyboard-response", "trial_index": 232, "time_elapsed": 354419, "internal_node_id": "0.0-232.0", "subject": "OVS031", "sona": "121093", "block": 2, "time": "2020-06-24T17:34:01.526Z", "response": "2nd", "certainty": "high", "char": "L", "melody_type": "diatonic", "order": ["shifted", "swapped"], "probe_pitches": [9, 7, 5, 2, -1, -3, 0, 4], "shifted_pitches": [9, 7, 5, 3, -1, -3, 0, 4], "swapped_pitches": [9, 7, 5, -1, 2, -3, 0, 4], "shift_direction": "up", "question_num": "171", "has_decoy": false}, {"rt": 1042.3399999854155, "stimulus": "[A] option 1, [L] option 2, [G] neither", "key_press": 71, "name": "choice", "trial_type": "html-keyboard-response", "trial_index": 245, "time_elapsed": 372442, "internal_node_id": "0.0-245.0", "subject": "OVS031", "sona": "121093", "block": 2, "time": "2020-06-24T17:34:01.526Z", "response": "neither", "certainty": "high", "char": "G", "melody_type": "chromatic", "order": ["swapped", "shifted"], "probe_pitches": [16, 15, 14, 13, 9, 11, 10, 6], "shifted_pitches": [16, 15, 14, 13, 8, 11, 10, 6], "swapped_pitches": [16, 15, 14, 13, 9, 11, 10, 6], "shift_direction": "down", "question_num": "181", "has_decoy": true, "decoy_position": "swapped"}, {"rt": 2975.480000022799, "stimulus": "[A] option 1, [L] option 2, [G] neither", "key_press": 71, "name": "choice", "trial_type": "html-keyboard-response", "trial_index": 258, "time_elapsed": 392131, "internal_node_id": "0.0-258.0", "subject": "OVS031", "sona": "121093", "block": 2, "time": "2020-06-24T17:34:01.526Z", "response": "neither", "certainty": "high", "char": "G", "melody_type": "diatonic", "order": ["shifted", "swapped"], "probe_pitches": [11, 9, 7, 4, 5, 2, 0, -1], "shifted_pitches": [11, 9, 7, 4, 6, 2, 0, -1], "swapped_pitches": [11, 9, 7, 5, 4, 2, 0, -1], "shift_direction": "up", "question_num": "191", "has_decoy": false}]}, {"dir": "./data/OVS031/csv/OVS031_block_3.json", "block": 3, "similarity": [{"rt": 3067.2649999614805, "stimulus": "[A] option 1, [L] option 2, [G] neither", "key_press": 65, "name": "choice", "trial_type": "html-keyboard-response", "trial_index": 11, "time_elapsed": 22410, "internal_node_id": "0.0-11.0", "subject": "OVS031", "sona": "121093", "block": 3, "time": "2020-06-24T17:41:26.418Z", "response": "1st", "certainty": "high", "char": "A", "melody_type": "chromatic", "order": ["shifted", "swapped"], "probe_pitches": [0, -2, -1, 2, 5, 4, 3, 7], "shifted_pitches": [0, -2, -1, 2, 5, 4, 3, 7], "swapped_pitches": [0, -2, -1, 5, 2, 4, 3, 7], "shift_direction": "up", "question_num": "01", "has_decoy": true, "decoy_position": "shifted"}, {"rt": 993.4299999731593, "stimulus": "[A] option 1, [L] option 2, [G] neither", "key_press": 71, "name": "choice", "trial_type": "html-keyboard-response", "trial_index": 24, "time_elapsed": 41710, "internal_node_id": "0.0-24.0", "subject": "OVS031", "sona": "121093", "block": 3, "time": "2020-06-24T17:41:26.418Z", "response": "neither", "certainty": "high", "char": "G", "melody_type": "diatonic", "order": ["shifted", "swapped"], "probe_pitches": [-5, -3, 0, -1, 2, 5, 7, 4], "shifted_pitches": [-5, -3, 0, -2, 2, 5, 7, 4], "swapped_pitches": [-5, -3, 0, 2, -1, 5, 7, 4], "shift_direction": "down", "question_num": "11", "has_decoy": false}, {"rt": 2150.000000023283, "stimulus": "[A] option 1, [L] option 2, [G] neither", "key_press": 71, "name": "choice", "trial_type": "html-keyboard-response", "trial_index": 37, "time_elapsed": 61272, "internal_node_id": "0.0-37.0", "subject": "OVS031", "sona": "121093", "block": 3, "time": "2020-06-24T17:41:26.418Z", "response": "neither", "certainty": "high", "char": "G", "melody_type": "diatonic", "order": ["shifted", "swapped"], "probe_pitches": [11, 12, 9, 7, 4, 0, 2, 5], "shifted_pitches": [11, 12, 9, 8, 4, 0, 2, 5], "swapped_pitches": [11, 12, 9, 4, 7, 0, 2, 5], "shift_direction": "up", "question_num": "21", "has_decoy": false}, {"rt": 1975.2949999528937, "stimulus": "[A] option 1, [L] option 2, [G] neither", "key_press": 65, "name": "choice", "trial_type": "html-keyboard-response", "trial_index": 50, "time_elapsed": 79792, "internal_node_id": "0.0-50.0", "subject": "OVS031", "sona": "121093", "block": 3, "time": "2020-06-24T17:41:26.418Z", "response": "1st", "certainty": "high", "char": "A", "melody_type": "diatonic", "order": ["swapped", "shifted"], "probe_pitches": [-5, -3, -1, 0, 2, 4, 7, 5], "shifted_pitches": [-5, -3, -1, 0, 3, 4, 7, 5], "swapped_pitches": [-5, -3, -1, 2, 0, 4, 7, 5], "shift_direction": "up", "question_num": "31", "has_decoy": false}, {"rt": 1462.7049999544397, "stimulus": "[A] option 1, [L] option 2, [G] neither", "key_press": 65, "name": "choice", "trial_type": "html-keyboard-response", "trial_index": 63, "time_elapsed": 98664, "internal_node_id": "0.0-63.0", "subject": "OVS031", "sona": "121093", "block": 3, "time": "2020-06-24T17:41:26.418Z", "response": "1st", "certainty": "high", "char": "A", "melody_type": "chromatic", "order": ["shifted", "swapped"], "probe_pitches": [13, 11, 12, 16, 14, 10, 8, 6], "shifted_pitches": [13, 11, 12, 16, 15, 10, 8, 6], "swapped_pitches": [13, 11, 12, 14, 16, 10, 8, 6], "shift_direction": "up", "question_num": "41", "has_decoy": false}, {"rt": 2338.835000002291, "stimulus": "[A] option 1, [L] option 2, [G] neither", "key_press": 65, "name": "choice", "trial_type": "html-keyboard-response", "trial_index": 76, "time_elapsed": 117259, "internal_node_id": "0.0-76.0", "subject": "OVS031", "sona": "121093", "block": 3, "time": "2020-06-24T17:41:26.418Z", "response": "1st", "certainty": "high", "char": "A", "melody_type": "diatonic", "order": ["shifted", "swapped"], "probe_pitches": [0, 4, 2, 5, 9, 12, 11, 7], "shifted_pitches": [0, 4, 2, 5, 8, 12, 11, 7], "swapped_pitches": [0, 4, 2, 9, 5, 12, 11, 7], "shift_direction": "down", "question_num": "51", "has_decoy": false}, {"rt": 2463.935000007041, "stimulus": "[A] option 1, [L] option 2, [G] neither", "key_press": 71, "name": "choice", "trial_type": "html-keyboard-response", "trial_index": 89, "time_elapsed": 136296, "internal_node_id": "0.0-89.0", "subject": "OVS031", "sona": "121093", "block": 3, "time": "2020-06-24T17:41:26.418Z", "response": "neither", "certainty": "high", "char": "G", "melody_type": "chromatic", "order": ["swapped", "shifted"], "probe_pitches": [5, 6, 2, -1, -4, -5, -3, 1], "shifted_pitches": [5, 6, 2, 0, -4, -5, -3, 1], "swapped_pitches": [5, 6, 2, -4, -1, -5, -3, 1], "shift_direction": "up", "question_num": "61", "has_decoy": false}, {"rt": 1057.9150000121444, "stimulus": "[A] option 1, [L] option 2, [G] neither", "key_press": 71, "name": "choice", "trial_type": "html-keyboard-response", "trial_index": 102, "time_elapsed": 153524, "internal_node_id": "0.0-102.0", "subject": "OVS031", "sona": "121093", "block": 3, "time": "2020-06-24T17:41:26.418Z", "response": "neither", "certainty": "high", "char": "G", "melody_type": "diatonic", "order": ["swapped", "shifted"], "probe_pitches": [4, 5, 7, 9, 12, 16, 17, 14], "shifted_pitches": [4, 5, 7, 10, 12, 16, 17, 14], "swapped_pitches": [4, 5, 7, 12, 9, 16, 17, 14], "shift_direction": "up", "question_num": "71", "has_decoy": false}, {"rt": 2377.3849999997765, "stimulus": "[A] option 1, [L] option 2, [G] neither", "key_press": 71, "name": "choice", "trial_type": "html-keyboard-response", "trial_index": 115, "time_elapsed": 176564, "internal_node_id": "0.0-115.0", "subject": "OVS031", "sona": "121093", "block": 3, "time": "2020-06-24T17:41:26.418Z", "response": "neither", "certainty": "high", "char": "G", "melody_type": "chromatic", "order": ["shifted", "swapped"], "probe_pitches": [3, 0, 2, -2, -4, -1, 1, 5], "shifted_pitches": [3, 0, 2, -2, -3, -1, 1, 5], "swapped_pitches": [3, 0, 2, -4, -2, -1, 1, 5], "shift_direction": "up", "question_num": "81", "has_decoy": false}, {"rt": 537.8099999506958, "stimulus": "[A] option 1, [L] option 2, [G] neither", "key_press": 71, "name": "choice", "trial_type": "html-keyboard-response", "trial_index": 128, "time_elapsed": 193190, "internal_node_id": "0.0-128.0", "subject": "OVS031", "sona": "121093", "block": 3, "time": "2020-06-24T17:41:26.418Z", "response": "neither", "certainty": "high", "char": "G", "melody_type": "diatonic", "order": ["swapped", "shifted"], "probe_pitches": [7, 4, 5, 2, 0, -3, -5, -1], "shifted_pitches": [7, 4, 5, 3, 0, -3, -5, -1], "swapped_pitches": [7, 4, 5, 0, 2, -3, -5, -1], "shift_direction": "up", "question_num": "91", "has_decoy": false}, {"rt": 2713.625000033062, "stimulus": "[A] option 1, [L] option 2, [G] neither", "key_press": 71, "name": "choice", "trial_type": "html-keyboard-response", "trial_index": 141, "time_elapsed": 212455, "internal_node_id": "0.0-141.0", "subject": "OVS031", "sona": "121093", "block": 3, "time": "2020-06-24T17:41:26.418Z", "response": "neither", "certainty": "high", "char": "G", "melody_type": "chromatic", "order": ["shifted", "swapped"], "probe_pitches": [-4, -3, -2, 0, 4, 8, 6, 10], "shifted_pitches": [-4, -3, -2, -1, 4, 8, 6, 10], "swapped_pitches": [-4, -3, -2, 4, 0, 8, 6, 10], "shift_direction": "down", "question_num": "101", "has_decoy": false}, {"rt": 2678.375000017695, "stimulus": "[A] option 1, [L] option 2, [G] neither", "key_press": 65, "name": "choice", "trial_type": "html-keyboard-response", "trial_index": 154, "time_elapsed": 231320, "internal_node_id": "0.0-154.0", "subject": "OVS031", "sona": "121093", "block": 3, "time": "2020-06-24T17:41:26.418Z", "response": "1st", "certainty": "high", "char": "A", "melody_type": "diatonic", "order": ["swapped", "shifted"], "probe_pitches": [-1, -5, -3, 0, 2, 5, 7, 4], "shifted_pitches": [-1, -5, -3, 0, 1, 5, 7, 4], "swapped_pitches": [-1, -5, -3, 2, 0, 5, 7, 4], "shift_direction": "down", "question_num": "111", "has_decoy": false}, {"rt": 1945.7349999574944, "stimulus": "[A] option 1, [L] option 2, [G] neither", "key_press": 71, "name": "choice", "trial_type": "html-keyboard-response", "trial_index": 167, "time_elapsed": 249911, "internal_node_id": "0.0-167.0", "subject": "OVS031", "sona": "121093", "block": 3, "time": "2020-06-24T17:41:26.418Z", "response": "neither", "certainty": "high", "char": "G", "melody_type": "diatonic", "order": ["swapped", "shifted"], "probe_pitches": [0, -1, -5, -3, 2, 4, 7, 9], "shifted_pitches": [0, -1, -5, -3, 2, 4, 7, 9], "swapped_pitches": [0, -1, -5, 2, -3, 4, 7, 9], "shift_direction": "up", "question_num": "121", "has_decoy": true, "decoy_position": "shifted"}, {"rt": 1748.6749999807216, "stimulus": "[A] option 1, [L] option 2, [G] neither", "key_press": 71, "name": "choice", "trial_type": "html-keyboard-response", "trial_index": 180, "time_elapsed": 267904, "internal_node_id": "0.0-180.0", "subject": "OVS031", "sona": "121093", "block": 3, "time": "2020-06-24T17:41:26.418Z", "response": "neither", "certainty": "high", "char": "G", "melody_type": "chromatic", "order": ["swapped", "shifted"], "probe_pitches": [6, 3, 7, 9, 13, 11, 15, 12], "shifted_pitches": [6, 3, 7, 8, 13, 11, 15, 12], "swapped_pitches": [6, 3, 7, 13, 9, 11, 15, 12], "shift_direction": "down", "question_num": "131", "has_decoy": false}, {"rt": 2444.1099999821745, "stimulus": "[A] option 1, [L] option 2, [G] neither", "key_press": 71, "name": "choice", "trial_type": "html-keyboard-response", "trial_index": 193, "time_elapsed": 286476, "internal_node_id": "0.0-193.0", "subject": "OVS031", "sona": "121093", "block": 3, "time": "2020-06-24T17:41:26.418Z", "response": "neither", "certainty": "high", "char": "G", "melody_type": "diatonic", "order": ["shifted", "swapped"], "probe_pitches": [0, 2, -1, -5, -3, 4, 7, 5], "shifted_pitches": [0, 2, -1, -5, -4, 4, 7, 5], "swapped_pitches": [0, 2, -1, -3, -5, 4, 7, 5], "shift_direction": "down", "question_num": "141", "has_decoy": false}, {"rt": 1915.5099999625236, "stimulus": "[A] option 1, [L] option 2, [G] neither", "key_press": 71, "name": "choice", "trial_type": "html-keyboard-response", "trial_index": 206, "time_elapsed": 305238, "internal_node_id": "0.0-206.0", "subject": "OVS031", "sona": "121093", "block": 3, "time": "2020-06-24T17:41:26.418Z", "response": "neither", "certainty": "high", "char": "G", "melody_type": "diatonic", "order": ["shifted", "swapped"], "probe_pitches": [7, 9, 12, 14, 17, 16, 11, 5], "shifted_pitches": [7, 9, 12, 15, 17, 16, 11, 5], "swapped_pitches": [7, 9, 12, 14, 17, 16, 11, 5], "shift_direction": "up", "question_num": "151", "has_decoy": true, "decoy_position": "swapped"}, {"rt": 1111.5850000060163, "stimulus": "[A] option 1, [L] option 2, [G] neither", "key_press": 71, "name": "choice", "trial_type": "html-keyboard-response", "trial_index": 219, "time_elapsed": 322683, "internal_node_id": "0.0-219.0", "subject": "OVS031", "sona": "121093", "block": 3, "time": "2020-06-24T17:41:26.418Z", "response": "neither", "certainty": "high", "char": "G", "melody_type": "chromatic", "order": ["swapped", "shifted"], "probe_pitches": [8, 9, 7, 11, 13, 15, 12, 16], "shifted_pitches": [8, 9, 7, 10, 13, 15, 12, 16], "swapped_pitches": [8, 9, 7, 13, 11, 15, 12, 16], "shift_direction": "down", "question_num": "161", "has_decoy": false}, {"rt": 1415.4950000229292, "stimulus": "[A] option 1, [L] option 2, [G] neither", "key_press": 71, "name": "choice", "trial_type": "html-keyboard-response", "trial_index": 232, "time_elapsed": 340250, "internal_node_id": "0.0-232.0", "subject": "OVS031", "sona": "121093", "block": 3, "time": "2020-06-24T17:41:26.418Z", "response": "neither", "certainty": "high", "char": "G", "melody_type": "chromatic", "order": ["shifted", "swapped"], "probe_pitches": [3, 4, 5, 6, 8, 11, 12, 15], "shifted_pitches": [3, 4, 5, 6, 9, 11, 12, 15], "swapped_pitches": [3, 4, 5, 8, 6, 11, 12, 15], "shift_direction": "up", "question_num": "171", "has_decoy": false}, {"rt": 1803.3599999616854, "stimulus": "[A] option 1, [L] option 2, [G] neither", "key_press": 71, "name": "choice", "trial_type": "html-keyboard-response", "trial_index": 245, "time_elapsed": 358475, "internal_node_id": "0.0-245.0", "subject": "OVS031", "sona": "121093", "block": 3, "time": "2020-06-24T17:41:26.418Z", "response": "neither", "certainty": "high", "char": "G", "melody_type": "chromatic", "order": ["swapped", "shifted"], "probe_pitches": [15, 11, 9, 12, 13, 10, 8, 5], "shifted_pitches": [15, 11, 9, 12, 14, 10, 8, 5], "swapped_pitches": [15, 11, 9, 12, 13, 10, 8, 5], "shift_direction": "up", "question_num": "181", "has_decoy": true, "decoy_position": "swapped"}, {"rt": 1607.4749999679625, "stimulus": "[A] option 1, [L] option 2, [G] neither", "key_press": 71, "name": "choice", "trial_type": "html-keyboard-response", "trial_index": 258, "time_elapsed": 377772, "internal_node_id": "0.0-258.0", "subject": "OVS031", "sona": "121093", "block": 3, "time": "2020-06-24T17:41:26.418Z", "response": "neither", "certainty": "high", "char": "G", "melody_type": "chromatic", "order": ["swapped", "shifted"], "probe_pitches": [4, 8, 7, 10, 12, 16, 15, 13], "shifted_pitches": [4, 8, 7, 10, 11, 16, 15, 13], "swapped_pitches": [4, 8, 7, 12, 10, 16, 15, 13], "shift_direction": "down", "question_num": "191", "has_decoy": false}]}, {"dir": "./data/OVS031/csv/OVS031_block_4.json", "block": 4, "similarity": [{"rt": 1017.8150000283495, "stimulus": "[A] option 1, [L] option 2, [G] neither", "key_press": 71, "name": "choice", "trial_type": "html-keyboard-response", "trial_index": 11, "time_elapsed": 18215, "internal_node_id": "0.0-11.0", "subject": "OVS031", "sona": "121093", "block": 4, "time": "2020-06-24T17:48:20.665Z", "response": "neither", "certainty": "high", "char": "G", "melody_type": "chromatic", "order": ["swapped", "shifted"], "probe_pitches": [-5, -3, -4, -1, 2, 4, 6, 10], "shifted_pitches": [-5, -3, -4, -2, 2, 4, 6, 10], "swapped_pitches": [-5, -3, -4, 2, -1, 4, 6, 10], "shift_direction": "down", "question_num": "01", "has_decoy": false}, {"rt": 1600.3299999865703, "stimulus": "[A] option 1, [L] option 2, [G] neither", "key_press": 71, "name": "choice", "trial_type": "html-keyboard-response", "trial_index": 24, "time_elapsed": 37853, "internal_node_id": "0.0-24.0", "subject": "OVS031", "sona": "121093", "block": 4, "time": "2020-06-24T17:48:20.665Z", "response": "neither", "certainty": "high", "char": "G", "melody_type": "chromatic", "order": ["shifted", "swapped"], "probe_pitches": [0, -4, -1, 1, 3, 2, -2, -3], "shifted_pitches": [0, -4, -1, 1, 4, 2, -2, -3], "swapped_pitches": [0, -4, -1, 3, 1, 2, -2, -3], "shift_direction": "up", "question_num": "11", "has_decoy": false}, {"rt": 5734.38499995973, "stimulus": "[A] option 1, [L] option 2, [G] neither", "key_press": 71, "name": "choice", "trial_type": "html-keyboard-response", "trial_index": 37, "time_elapsed": 60401, "internal_node_id": "0.0-37.0", "subject": "OVS031", "sona": "121093", "block": 4, "time": "2020-06-24T17:48:20.665Z", "response": "neither", "certainty": "high", "char": "G", "melody_type": "diatonic", "order": ["swapped", "shifted"], "probe_pitches": [5, 2, -1, -3, -5, 0, 4, 7], "shifted_pitches": [5, 2, -1, -3, -5, 0, 4, 7], "swapped_pitches": [5, 2, -1, -5, -3, 0, 4, 7], "shift_direction": "down", "question_num": "21", "has_decoy": true, "decoy_position": "shifted"}, {"rt": 1466.6699999943376, "stimulus": "[A] option 1, [L] option 2, [G] neither", "key_press": 71, "name": "choice", "trial_type": "html-keyboard-response", "trial_index": 50, "time_elapsed": 78234, "internal_node_id": "0.0-50.0", "subject": "OVS031", "sona": "121093", "block": 4, "time": "2020-06-24T17:48:20.665Z", "response": "neither", "certainty": "high", "char": "G", "melody_type": "diatonic", "order": ["shifted", "swapped"], "probe_pitches": [4, 5, 2, -1, 0, -3, -5, 7], "shifted_pitches": [4, 5, 2, -1, 1, -3, -5, 7], "swapped_pitches": [4, 5, 2, 0, -1, -3, -5, 7], "shift_direction": "up", "question_num": "31", "has_decoy": false}, {"rt": 968.0850000004284, "stimulus": "[A] option 1, [L] option 2, [G] neither", "key_press": 65, "name": "choice", "trial_type": "html-keyboard-response", "trial_index": 63, "time_elapsed": 95346, "internal_node_id": "0.0-63.0", "subject": "OVS031", "sona": "121093", "block": 4, "time": "2020-06-24T17:48:20.665Z", "response": "1st", "certainty": "high", "char": "A", "melody_type": "diatonic", "order": ["swapped", "shifted"], "probe_pitches": [-3, 0, 2, -1, -5, 4, 5, 7], "shifted_pitches": [-3, 0, 2, -1, -6, 4, 5, 7], "swapped_pitches": [-3, 0, 2, -5, -1, 4, 5, 7], "shift_direction": "down", "question_num": "41", "has_decoy": false}, {"rt": 887.8549999790266, "stimulus": "[A] option 1, [L] option 2, [G] neither", "key_press": 76, "name": "choice", "trial_type": "html-keyboard-response", "trial_index": 76, "time_elapsed": 112676, "internal_node_id": "0.0-76.0", "subject": "OVS031", "sona": "121093", "block": 4, "time": "2020-06-24T17:48:20.665Z", "response": "2nd", "certainty": "high", "char": "L", "melody_type": "diatonic", "order": ["shifted", "swapped"], "probe_pitches": [16, 14, 12, 11, 7, 5, 4, 0], "shifted_pitches": [16, 14, 12, 11, 6, 5, 4, 0], "swapped_pitches": [16, 14, 12, 11, 7, 5, 4, 0], "shift_direction": "down", "question_num": "51", "has_decoy": true, "decoy_position": "swapped"}, {"rt": 352.08500002045184, "stimulus": "[A] option 1, [L] option 2, [G] neither", "key_press": 65, "name": "choice", "trial_type": "html-keyboard-response", "trial_index": 89, "time_elapsed": 131659, "internal_node_id": "0.0-89.0", "subject": "OVS031", "sona": "121093", "block": 4, "time": "2020-06-24T17:48:20.665Z", "response": "1st", "certainty": "high", "char": "A", "melody_type": "diatonic", "order": ["swapped", "shifted"], "probe_pitches": [-1, 0, 2, 5, 9, 12, 11, 7], "shifted_pitches": [-1, 0, 2, 6, 9, 12, 11, 7], "swapped_pitches": [-1, 0, 2, 9, 5, 12, 11, 7], "shift_direction": "up", "question_num": "61", "has_decoy": false}, {"rt": 1092.6750000216998, "stimulus": "[A] option 1, [L] option 2, [G] neither", "key_press": 71, "name": "choice", "trial_type": "html-keyboard-response", "trial_index": 102, "time_elapsed": 149198, "internal_node_id": "0.0-102.0", "subject": "OVS031", "sona": "121093", "block": 4, "time": "2020-06-24T17:48:20.665Z", "response": "neither", "certainty": "high", "char": "G", "melody_type": "diatonic", "order": ["shifted", "swapped"], "probe_pitches": [5, 7, 4, 0, -3, -5, -1, 2], "shifted_pitches": [5, 7, 4, 0, -4, -5, -1, 2], "swapped_pitches": [5, 7, 4, -3, 0, -5, -1, 2], "shift_direction": "down", "question_num": "71", "has_decoy": false}, {"rt": 1091.4199999533594, "stimulus": "[A] option 1, [L] option 2, [G] neither", "key_press": 65, "name": "choice", "trial_type": "html-keyboard-response", "trial_index": 115, "time_elapsed": 168320, "internal_node_id": "0.0-115.0", "subject": "OVS031", "sona": "121093", "block": 4, "time": "2020-06-24T17:48:20.665Z", "response": "1st", "certainty": "high", "char": "A", "melody_type": "diatonic", "order": ["swapped", "shifted"], "probe_pitches": [14, 11, 7, 9, 5, 2, 4, 0], "shifted_pitches": [14, 11, 7, 10, 5, 2, 4, 0], "swapped_pitches": [14, 11, 7, 5, 9, 2, 4, 0], "shift_direction": "up", "question_num": "81", "has_decoy": false}, {"rt": 777.4299999582581, "stimulus": "[A] option 1, [L] option 2, [G] neither", "key_press": 76, "name": "choice", "trial_type": "html-keyboard-response", "trial_index": 128, "time_elapsed": 185764, "internal_node_id": "0.0-128.0", "subject": "OVS031", "sona": "121093", "block": 4, "time": "2020-06-24T17:48:20.665Z", "response": "2nd", "certainty": "high", "char": "L", "melody_type": "chromatic", "order": ["swapped", "shifted"], "probe_pitches": [3, 2, 5, 7, 9, 13, 15, 12], "shifted_pitches": [3, 2, 5, 7, 10, 13, 15, 12], "swapped_pitches": [3, 2, 5, 9, 7, 13, 15, 12], "shift_direction": "up", "question_num": "91", "has_decoy": false}, {"rt": 934.3150000204332, "stimulus": "[A] option 1, [L] option 2, [G] neither", "key_press": 71, "name": "choice", "trial_type": "html-keyboard-response", "trial_index": 141, "time_elapsed": 205042, "internal_node_id": "0.0-141.0", "subject": "OVS031", "sona": "121093", "block": 4, "time": "2020-06-24T17:48:20.665Z", "response": "neither", "certainty": "high", "char": "G", "melody_type": "chromatic", "order": ["shifted", "swapped"], "probe_pitches": [15, 12, 14, 10, 7, 6, 5, 4], "shifted_pitches": [15, 12, 14, 10, 7, 6, 5, 4], "swapped_pitches": [15, 12, 14, 7, 10, 6, 5, 4], "shift_direction": "up", "question_num": "101", "has_decoy": true, "decoy_position": "shifted"}, {"rt": 3253.125000046566, "stimulus": "[A] option 1, [L] option 2, [G] neither", "key_press": 71, "name": "choice", "trial_type": "html-keyboard-response", "trial_index": 154, "time_elapsed": 224773, "internal_node_id": "0.0-154.0", "subject": "OVS031", "sona": "121093", "block": 4, "time": "2020-06-24T17:48:20.665Z", "response": "neither", "certainty": "high", "char": "G", "melody_type": "chromatic", "order": ["swapped", "shifted"], "probe_pitches": [11, 14, 13, 10, 6, 5, 1, 0], "shifted_pitches": [11, 14, 13, 9, 6, 5, 1, 0], "swapped_pitches": [11, 14, 13, 6, 10, 5, 1, 0], "shift_direction": "down", "question_num": "111", "has_decoy": false}, {"rt": 990.494999976363, "stimulus": "[A] option 1, [L] option 2, [G] neither", "key_press": 76, "name": "choice", "trial_type": "html-keyboard-response", "trial_index": 167, "time_elapsed": 246738, "internal_node_id": "0.0-167.0", "subject": "OVS031", "sona": "121093", "block": 4, "time": "2020-06-24T17:48:20.665Z", "response": "2nd", "certainty": "high", "char": "L", "melody_type": "chromatic", "order": ["shifted", "swapped"], "probe_pitches": [3, 5, 8, 11, 14, 12, 9, 7], "shifted_pitches": [3, 5, 8, 10, 14, 12, 9, 7], "swapped_pitches": [3, 5, 8, 14, 11, 12, 9, 7], "shift_direction": "down", "question_num": "121", "has_decoy": false}, {"rt": 1016.7349999537691, "stimulus": "[A] option 1, [L] option 2, [G] neither", "key_press": 71, "name": "choice", "trial_type": "html-keyboard-response", "trial_index": 180, "time_elapsed": 265865, "internal_node_id": "0.0-180.0", "subject": "OVS031", "sona": "121093", "block": 4, "time": "2020-06-24T17:48:20.665Z", "response": "neither", "certainty": "high", "char": "G", "melody_type": "chromatic", "order": ["shifted", "swapped"], "probe_pitches": [16, 12, 9, 13, 10, 6, 3, 0], "shifted_pitches": [16, 12, 9, 13, 11, 6, 3, 0], "swapped_pitches": [16, 12, 9, 10, 13, 6, 3, 0], "shift_direction": "up", "question_num": "131", "has_decoy": false}, {"rt": 2073.030000028666, "stimulus": "[A] option 1, [L] option 2, [G] neither", "key_press": 71, "name": "choice", "trial_type": "html-keyboard-response", "trial_index": 193, "time_elapsed": 284646, "internal_node_id": "0.0-193.0", "subject": "OVS031", "sona": "121093", "block": 4, "time": "2020-06-24T17:48:20.665Z", "response": "neither", "certainty": "high", "char": "G", "melody_type": "chromatic", "order": ["swapped", "shifted"], "probe_pitches": [15, 13, 11, 9, 12, 10, 6, 7], "shifted_pitches": [15, 13, 11, 8, 12, 10, 6, 7], "swapped_pitches": [15, 13, 11, 12, 9, 10, 6, 7], "shift_direction": "down", "question_num": "141", "has_decoy": false}, {"rt": 2392.7599999587983, "stimulus": "[A] option 1, [L] option 2, [G] neither", "key_press": 71, "name": "choice", "trial_type": "html-keyboard-response", "trial_index": 206, "time_elapsed": 304026, "internal_node_id": "0.0-206.0", "subject": "OVS031", "sona": "121093", "block": 4, "time": "2020-06-24T17:48:20.665Z", "response": "neither", "certainty": "high", "char": "G", "melody_type": "chromatic", "order": ["swapped", "shifted"], "probe_pitches": [11, 15, 12, 13, 10, 6, 5, 4], "shifted_pitches": [11, 15, 12, 14, 10, 6, 5, 4], "swapped_pitches": [11, 15, 12, 13, 10, 6, 5, 4], "shift_direction": "up", "question_num": "151", "has_decoy": true, "decoy_position": "swapped"}, {"rt": 2558.6849999963306, "stimulus": "[A] option 1, [L] option 2, [G] neither", "key_press": 71, "name": "choice", "trial_type": "html-keyboard-response", "trial_index": 219, "time_elapsed": 323152, "internal_node_id": "0.0-219.0", "subject": "OVS031", "sona": "121093", "block": 4, "time": "2020-06-24T17:48:20.665Z", "response": "neither", "certainty": "high", "char": "G", "melody_type": "chromatic", "order": ["shifted", "swapped"], "probe_pitches": [8, 7, 10, 9, 13, 16, 12, 15], "shifted_pitches": [8, 7, 10, 9, 14, 16, 12, 15], "swapped_pitches": [8, 7, 10, 13, 9, 16, 12, 15], "shift_direction": "up", "question_num": "161", "has_decoy": false}, {"rt": 2698.404999973718, "stimulus": "[A] option 1, [L] option 2, [G] neither", "key_press": 76, "name": "choice", "trial_type": "html-keyboard-response", "trial_index": 232, "time_elapsed": 342622, "internal_node_id": "0.0-232.0", "subject": "OVS031", "sona": "121093", "block": 4, "time": "2020-06-24T17:48:20.665Z", "response": "2nd", "certainty": "high", "char": "L", "melody_type": "diatonic", "order": ["swapped", "shifted"], "probe_pitches": [12, 16, 14, 11, 9, 7, 4, 5], "shifted_pitches": [12, 16, 14, 10, 9, 7, 4, 5], "swapped_pitches": [12, 16, 14, 9, 11, 7, 4, 5], "shift_direction": "down", "question_num": "171", "has_decoy": false}, {"rt": 1509.2799999983981, "stimulus": "[A] option 1, [L] option 2, [G] neither", "key_press": 76, "name": "choice", "trial_type": "html-keyboard-response", "trial_index": 245, "time_elapsed": 360828, "internal_node_id": "0.0-245.0", "subject": "OVS031", "sona": "121093", "block": 4, "time": "2020-06-24T17:48:20.665Z", "response": "2nd", "certainty": "high", "char": "L", "melody_type": "diatonic", "order": ["shifted", "swapped"], "probe_pitches": [0, -3, -1, -5, 2, 5, 9, 7], "shifted_pitches": [0, -3, -1, -4, 2, 5, 9, 7], "swapped_pitches": [0, -3, -1, 2, -5, 5, 9, 7], "shift_direction": "up", "question_num": "181", "has_decoy": false}, {"rt": 3247.819999989588, "stimulus": "[A] option 1, [L] option 2, [G] neither", "key_press": 71, "name": "choice", "trial_type": "html-keyboard-response", "trial_index": 258, "time_elapsed": 380904, "internal_node_id": "0.0-258.0", "subject": "OVS031", "sona": "121093", "block": 4, "time": "2020-06-24T17:48:20.665Z", "response": "neither", "certainty": "high", "char": "G", "melody_type": "diatonic", "order": ["shifted", "swapped"], "probe_pitches": [5, 9, 11, 12, 16, 17, 14, 7], "shifted_pitches": [5, 9, 11, 12, 15, 17, 14, 7], "swapped_pitches": [5, 9, 11, 16, 12, 17, 14, 7], "shift_direction": "down", "question_num": "191", "has_decoy": false}]}, {"dir": "./data/OVS031/csv/OVS031_block_5.json", "block": 5, "similarity": [{"rt": 13469.604999991134, "stimulus": "[A] option 1, [L] option 2, [G] neither", "key_press": 71, "name": "choice", "trial_type": "html-keyboard-response", "trial_index": 11, "time_elapsed": 30794, "internal_node_id": "0.0-11.0", "subject": "OVS031", "sona": "121093", "block": 5, "time": "2020-06-24T17:56:42.529Z", "response": "neither", "certainty": "high", "char": "G", "melody_type": "diatonic", "order": ["swapped", "shifted"], "probe_pitches": [0, -3, -5, -1, 2, 5, 9, 7], "shifted_pitches": [0, -3, -5, -1, 3, 5, 9, 7], "swapped_pitches": [0, -3, -5, 2, -1, 5, 9, 7], "shift_direction": "up", "question_num": "01", "has_decoy": false}, {"rt": 1434.354999975767, "stimulus": "[A] option 1, [L] option 2, [G] neither", "key_press": 65, "name": "choice", "trial_type": "html-keyboard-response", "trial_index": 24, "time_elapsed": 49264, "internal_node_id": "0.0-24.0", "subject": "OVS031", "sona": "121093", "block": 5, "time": "2020-06-24T17:56:42.529Z", "response": "1st", "certainty": "high", "char": "A", "melody_type": "diatonic", "order": ["swapped", "shifted"], "probe_pitches": [2, 4, 7, 9, 11, 14, 12, 16], "shifted_pitches": [2, 4, 7, 8, 11, 14, 12, 16], "swapped_pitches": [2, 4, 7, 11, 9, 14, 12, 16], "shift_direction": "down", "question_num": "11", "has_decoy": false}, {"rt": 1422.5299999816343, "stimulus": "[A] option 1, [L] option 2, [G] neither", "key_press": 76, "name": "choice", "trial_type": "html-keyboard-response", "trial_index": 37, "time_elapsed": 68206, "internal_node_id": "0.0-37.0", "subject": "OVS031", "sona": "121093", "block": 5, "time": "2020-06-24T17:56:42.529Z", "response": "2nd", "certainty": "high", "char": "L", "melody_type": "diatonic", "order": ["swapped", "shifted"], "probe_pitches": [12, 11, 9, 5, 4, 7, 2, 0], "shifted_pitches": [12, 11, 9, 5, 3, 7, 2, 0], "swapped_pitches": [12, 11, 9, 5, 4, 7, 2, 0], "shift_direction": "down", "question_num": "21", "has_decoy": true, "decoy_position": "swapped"}, {"rt": 2568.1299999705516, "stimulus": "[A] option 1, [L] option 2, [G] neither", "key_press": 71, "name": "choice", "trial_type": "html-keyboard-response", "trial_index": 50, "time_elapsed": 87963, "internal_node_id": "0.0-50.0", "subject": "OVS031", "sona": "121093", "block": 5, "time": "2020-06-24T17:56:42.529Z", "response": "neither", "certainty": "high", "char": "G", "melody_type": "diatonic", "order": ["shifted", "swapped"], "probe_pitches": [16, 14, 11, 7, 9, 5, 4, 0], "shifted_pitches": [16, 14, 11, 7, 8, 5, 4, 0], "swapped_pitches": [16, 14, 11, 9, 7, 5, 4, 0], "shift_direction": "down", "question_num": "31", "has_decoy": false}, {"rt": 3249.2850000271574, "stimulus": "[A] option 1, [L] option 2, [G] neither", "key_press": 71, "name": "choice", "trial_type": "html-keyboard-response", "trial_index": 63, "time_elapsed": 107850, "internal_node_id": "0.0-63.0", "subject": "OVS031", "sona": "121093", "block": 5, "time": "2020-06-24T17:56:42.529Z", "response": "neither", "certainty": "high", "char": "G", "melody_type": "diatonic", "order": ["shifted", "swapped"], "probe_pitches": [-1, -3, 0, 4, 7, 9, 12, 14], "shifted_pitches": [-1, -3, 0, 3, 7, 9, 12, 14], "swapped_pitches": [-1, -3, 0, 7, 4, 9, 12, 14], "shift_direction": "down", "question_num": "41", "has_decoy": false}, {"rt": 1653.7799999932759, "stimulus": "[A] option 1, [L] option 2, [G] neither", "key_press": 65, "name": "choice", "trial_type": "html-keyboard-response", "trial_index": 76, "time_elapsed": 175490, "internal_node_id": "0.0-76.0", "subject": "OVS031", "sona": "121093", "block": 5, "time": "2020-06-24T17:56:42.529Z", "response": "1st", "certainty": "high", "char": "A", "melody_type": "diatonic", "order": ["swapped", "shifted"], "probe_pitches": [7, 5, 9, 11, 14, 16, 17, 12], "shifted_pitches": [7, 5, 9, 11, 15, 16, 17, 12], "swapped_pitches": [7, 5, 9, 14, 11, 16, 17, 12], "shift_direction": "up", "question_num": "51", "has_decoy": false}, {"rt": 4602.190000005066, "stimulus": "[A] option 1, [L] option 2, [G] neither", "key_press": 71, "name": "choice", "trial_type": "html-keyboard-response", "trial_index": 89, "time_elapsed": 201409, "internal_node_id": "0.0-89.0", "subject": "OVS031", "sona": "121093", "block": 5, "time": "2020-06-24T17:56:42.529Z", "response": "neither", "certainty": "high", "char": "G", "melody_type": "chromatic", "order": ["swapped", "shifted"], "probe_pitches": [12, 11, 15, 14, 16, 13, 10, 8], "shifted_pitches": [12, 11, 15, 14, 17, 13, 10, 8], "swapped_pitches": [12, 11, 15, 16, 14, 13, 10, 8], "shift_direction": "up", "question_num": "61", "has_decoy": false}, {"rt": 1290.0950000039302, "stimulus": "[A] option 1, [L] option 2, [G] neither", "key_press": 76, "name": "choice", "trial_type": "html-keyboard-response", "trial_index": 102, "time_elapsed": 224159, "internal_node_id": "0.0-102.0", "subject": "OVS031", "sona": "121093", "block": 5, "time": "2020-06-24T17:56:42.529Z", "response": "2nd", "certainty": "high", "char": "L", "melody_type": "diatonic", "order": ["shifted", "swapped"], "probe_pitches": [17, 16, 12, 11, 14, 9, 5, 2], "shifted_pitches": [17, 16, 12, 11, 13, 9, 5, 2], "swapped_pitches": [17, 16, 12, 14, 11, 9, 5, 2], "shift_direction": "down", "question_num": "71", "has_decoy": false}, {"rt": 1944.8649999685585, "stimulus": "[A] option 1, [L] option 2, [G] neither", "key_press": 76, "name": "choice", "trial_type": "html-keyboard-response", "trial_index": 115, "time_elapsed": 242925, "internal_node_id": "0.0-115.0", "subject": "OVS031", "sona": "121093", "block": 5, "time": "2020-06-24T17:56:42.529Z", "response": "2nd", "certainty": "high", "char": "L", "melody_type": "chromatic", "order": ["swapped", "shifted"], "probe_pitches": [16, 15, 12, 8, 4, 0, -4, -5], "shifted_pitches": [16, 15, 12, 7, 4, 0, -4, -5], "swapped_pitches": [16, 15, 12, 4, 8, 0, -4, -5], "shift_direction": "down", "question_num": "81", "has_decoy": false}, {"rt": 1592.4949999898672, "stimulus": "[A] option 1, [L] option 2, [G] neither", "key_press": 71, "name": "choice", "trial_type": "html-keyboard-response", "trial_index": 128, "time_elapsed": 261733, "internal_node_id": "0.0-128.0", "subject": "OVS031", "sona": "121093", "block": 5, "time": "2020-06-24T17:56:42.529Z", "response": "neither", "certainty": "high", "char": "G", "melody_type": "diatonic", "order": ["shifted", "swapped"], "probe_pitches": [0, 2, 5, 4, 7, 9, 11, 12], "shifted_pitches": [0, 2, 5, 4, 7, 9, 11, 12], "swapped_pitches": [0, 2, 5, 7, 4, 9, 11, 12], "shift_direction": "down", "question_num": "91", "has_decoy": true, "decoy_position": "shifted"}, {"rt": 2109.82499999227, "stimulus": "[A] option 1, [L] option 2, [G] neither", "key_press": 76, "name": "choice", "trial_type": "html-keyboard-response", "trial_index": 141, "time_elapsed": 281897, "internal_node_id": "0.0-141.0", "subject": "OVS031", "sona": "121093", "block": 5, "time": "2020-06-24T17:56:42.529Z", "response": "2nd", "certainty": "high", "char": "L", "melody_type": "chromatic", "order": ["shifted", "swapped"], "probe_pitches": [14, 16, 15, 13, 11, 8, 9, 7], "shifted_pitches": [14, 16, 15, 13, 12, 8, 9, 7], "swapped_pitches": [14, 16, 15, 11, 13, 8, 9, 7], "shift_direction": "up", "question_num": "101", "has_decoy": false}, {"rt": 3649.0350000094622, "stimulus": "[A] option 1, [L] option 2, [G] neither", "key_press": 71, "name": "choice", "trial_type": "html-keyboard-response", "trial_index": 154, "time_elapsed": 301754, "internal_node_id": "0.0-154.0", "subject": "OVS031", "sona": "121093", "block": 5, "time": "2020-06-24T17:56:42.529Z", "response": "neither", "certainty": "high", "char": "G", "melody_type": "chromatic", "order": ["swapped", "shifted"], "probe_pitches": [1, 4, 8, 7, 11, 12, 9, 13], "shifted_pitches": [1, 4, 8, 7, 10, 12, 9, 13], "swapped_pitches": [1, 4, 8, 11, 7, 12, 9, 13], "shift_direction": "down", "question_num": "111", "has_decoy": false}, {"rt": 1173.030000005383, "stimulus": "[A] option 1, [L] option 2, [G] neither", "key_press": 76, "name": "choice", "trial_type": "html-keyboard-response", "trial_index": 167, "time_elapsed": 320056, "internal_node_id": "0.0-167.0", "subject": "OVS031", "sona": "121093", "block": 5, "time": "2020-06-24T17:56:42.529Z", "response": "2nd", "certainty": "high", "char": "L", "melody_type": "chromatic", "order": ["shifted", "swapped"], "probe_pitches": [14, 11, 7, 4, 2, -2, -1, -4], "shifted_pitches": [14, 11, 7, 3, 2, -2, -1, -4], "swapped_pitches": [14, 11, 7, 2, 4, -2, -1, -4], "shift_direction": "down", "question_num": "121", "has_decoy": false}, {"rt": 6103.3100000349805, "stimulus": "[A] option 1, [L] option 2, [G] neither", "key_press": 71, "name": "choice", "trial_type": "html-keyboard-response", "trial_index": 180, "time_elapsed": 348691, "internal_node_id": "0.0-180.0", "subject": "OVS031", "sona": "121093", "block": 5, "time": "2020-06-24T17:56:42.529Z", "response": "neither", "certainty": "high", "char": "G", "melody_type": "chromatic", "order": ["swapped", "shifted"], "probe_pitches": [-5, -2, -3, -1, 3, 7, 6, 4], "shifted_pitches": [-5, -2, -3, 0, 3, 7, 6, 4], "swapped_pitches": [-5, -2, -3, -1, 3, 7, 6, 4], "shift_direction": "up", "question_num": "131", "has_decoy": true, "decoy_position": "swapped"}, {"rt": 1200.5149999749847, "stimulus": "[A] option 1, [L] option 2, [G] neither", "key_press": 76, "name": "choice", "trial_type": "html-keyboard-response", "trial_index": 193, "time_elapsed": 368099, "internal_node_id": "0.0-193.0", "subject": "OVS031", "sona": "121093", "block": 5, "time": "2020-06-24T17:56:42.529Z", "response": "2nd", "certainty": "high", "char": "L", "melody_type": "chromatic", "order": ["shifted", "swapped"], "probe_pitches": [6, 3, 4, 1, -1, 0, -3, -4], "shifted_pitches": [6, 3, 4, 2, -1, 0, -3, -4], "swapped_pitches": [6, 3, 4, -1, 1, 0, -3, -4], "shift_direction": "up", "question_num": "141", "has_decoy": false}, {"rt": 5224.645000009332, "stimulus": "[A] option 1, [L] option 2, [G] neither", "key_press": 71, "name": "choice", "trial_type": "html-keyboard-response", "trial_index": 206, "time_elapsed": 391545, "internal_node_id": "0.0-206.0", "subject": "OVS031", "sona": "121093", "block": 5, "time": "2020-06-24T17:56:42.529Z", "response": "neither", "certainty": "high", "char": "G", "melody_type": "diatonic", "order": ["shifted", "swapped"], "probe_pitches": [14, 17, 16, 12, 11, 7, 9, 5], "shifted_pitches": [14, 17, 16, 13, 11, 7, 9, 5], "swapped_pitches": [14, 17, 16, 11, 12, 7, 9, 5], "shift_direction": "up", "question_num": "151", "has_decoy": false}, {"rt": 1818.0949999950826, "stimulus": "[A] option 1, [L] option 2, [G] neither", "key_press": 71, "name": "choice", "trial_type": "html-keyboard-response", "trial_index": 219, "time_elapsed": 411039, "internal_node_id": "0.0-219.0", "subject": "OVS031", "sona": "121093", "block": 5, "time": "2020-06-24T17:56:42.529Z", "response": "neither", "certainty": "high", "char": "G", "melody_type": "chromatic", "order": ["shifted", "swapped"], "probe_pitches": [14, 12, 8, 9, 11, 7, 3, 2], "shifted_pitches": [14, 12, 8, 9, 11, 7, 3, 2], "swapped_pitches": [14, 12, 8, 11, 9, 7, 3, 2], "shift_direction": "up", "question_num": "161", "has_decoy": true, "decoy_position": "shifted"}, {"rt": 4831.375000008848, "stimulus": "[A] option 1, [L] option 2, [G] neither", "key_press": 65, "name": "choice", "trial_type": "html-keyboard-response", "trial_index": 232, "time_elapsed": 432193, "internal_node_id": "0.0-232.0", "subject": "OVS031", "sona": "121093", "block": 5, "time": "2020-06-24T17:56:42.529Z", "response": "1st", "certainty": "high", "char": "A", "melody_type": "chromatic", "order": ["swapped", "shifted"], "probe_pitches": [11, 15, 13, 16, 14, 10, 7, 6], "shifted_pitches": [11, 15, 13, 17, 14, 10, 7, 6], "swapped_pitches": [11, 15, 13, 14, 16, 10, 7, 6], "shift_direction": "up", "question_num": "171", "has_decoy": false}, {"rt": 854.1449999902397, "stimulus": "[A] option 1, [L] option 2, [G] neither", "key_press": 71, "name": "choice", "trial_type": "html-keyboard-response", "trial_index": 245, "time_elapsed": 451116, "internal_node_id": "0.0-245.0", "subject": "OVS031", "sona": "121093", "block": 5, "time": "2020-06-24T17:56:42.529Z", "response": "neither", "certainty": "high", "char": "G", "melody_type": "chromatic", "order": ["shifted", "swapped"], "probe_pitches": [15, 13, 12, 11, 8, 9, 5, 4], "shifted_pitches": [15, 13, 12, 11, 7, 9, 5, 4], "swapped_pitches": [15, 13, 12, 8, 11, 9, 5, 4], "shift_direction": "down", "question_num": "181", "has_decoy": false}, {"rt": 1559.3600000138395, "stimulus": "[A] option 1, [L] option 2, [G] neither", "key_press": 71, "name": "choice", "trial_type": "html-keyboard-response", "trial_index": 258, "time_elapsed": 469428, "internal_node_id": "0.0-258.0", "subject": "OVS031", "sona": "121093", "block": 5, "time": "2020-06-24T17:56:42.529Z", "response": "neither", "certainty": "high", "char": "G", "melody_type": "diatonic", "order": ["swapped", "shifted"], "probe_pitches": [-1, 0, -3, -5, 2, 5, 9, 7], "shifted_pitches": [-1, 0, -3, -4, 2, 5, 9, 7], "swapped_pitches": [-1, 0, -3, 2, -5, 5, 9, 7], "shift_direction": "up", "question_num": "191", "has_decoy": false}]}], "analyzed": {"block": [{"trials_total": 16, "trials_diatonic": 8, "trials_chromatic": 8, "swapped_total": 5, "shifted_total": 3, "diatonic_swapped": 2, "diatonic_shifted": 2, "diatonic_neither": 4, "chromatic_swapped": 3, "chromatic_shifted": 1, "chromatic_neither": 4, "decoys_total": 4, "decoys_diatonic_total": 2, "decoys_chromatic_total": 2, "decoys_correct": 3, "decoys_diatonic_correct": 1, "decoys_chromatic_correct": 2, "rt_diatonic": [4530.064999999013, 4511.2849999568425, 1258.1450000288896, 991.6099999682046, 2837.050000031013, 974.8300000210293, 4705.879999964964, 4669.049999967683, 1436.0749999759719, 1657.2150000138208, 1204.4299999834038, 1923.595000000205, 860.8649999951012, 1270.8650000276975, 1261.739999987185, 2975.480000022799, 993.4299999731593, 2150.000000023283, 1975.2949999528937, 2338.835000002291, 1057.9150000121444, 537.8099999506958, 2678.375000017695, 2444.1099999821745, 1466.6699999943376, 968.0850000004284, 352.08500002045184, 1092.6750000216998, 1091.4199999533594, 2698.404999973718, 1509.2799999983981, 3247.819999989588, 13469.604999991134, 1434.354999975767, 2568.1299999705516, 3249.2850000271574, 1653.7799999932759, 1290.0950000039302, 5224.645000009332, 1559.3600000138395], "rt_diatonic_swapped": [1258.1450000288896, 974.8300000210293, 1923.595000000205, 1261.739999987185, 1975.2949999528937, 2678.375000017695, 968.0850000004284, 352.08500002045184, 1091.4199999533594, 1509.2799999983981, 1434.354999975767, 1653.7799999932759, 1290.0950000039302], "rt_diatonic_shifted": [991.6099999682046, 4669.049999967683, 1436.0749999759719, 1204.4299999834038, 2338.835000002291, 2698.404999973718], "rt_diatonic_neither": [4530.064999999013, 4511.2849999568425, 2837.050000031013, 4705.879999964964, 1657.2150000138208, 860.8649999951012, 1270.8650000276975, 2975.480000022799, 993.4299999731593, 2150.000000023283, 1057.9150000121444, 537.8099999506958, 2444.1099999821745, 1466.6699999943376, 1092.6750000216998, 3247.819999989588, 13469.604999991134, 2568.1299999705516, 3249.2850000271574, 5224.645000009332, 1559.3600000138395], "rt_chromatic": [1556.250000023283, 3836.409999988973, 1088.400000007823, 1888.669999956619, 1893.5650000348687, 1147.0400000107475, 1196.6600000159815, 1689.554999989923, 1399.6099999640137, 1143.7950000399724, 1858.7750000297092, 1075.5699999863282, 692.9799999925308, 1060.929999977816, 985.2299999911338, 1887.2799999662675, 1462.7049999544397, 2463.935000007041, 2377.3849999997765, 2713.625000033062, 1748.6749999807216, 1111.5850000060163, 1415.4950000229292, 1607.4749999679625, 1017.8150000283495, 1600.3299999865703, 777.4299999582581, 3253.125000046566, 990.494999976363, 1016.7349999537691, 2073.030000028666, 2558.6849999963306, 4602.190000005066, 1944.8649999685585, 2109.82499999227, 3649.0350000094622, 1173.030000005383, 1200.5149999749847, 4831.375000008848, 854.1449999902397], "rt_chromatic_swapped": [1556.250000023283, 1088.400000007823, 1893.5650000348687, 990.494999976363, 2109.82499999227, 1173.030000005383, 1200.5149999749847, 4831.375000008848], "rt_chromatic_shifted": [1147.0400000107475, 1399.6099999640137, 1858.7750000297092, 1075.5699999863282, 692.9799999925308, 1462.7049999544397, 777.4299999582581, 1944.8649999685585], "rt_chromatic_neither": [3836.409999988973, 1888.669999956619, 1196.6600000159815, 1689.554999989923, 1143.7950000399724, 1060.929999977816, 985.2299999911338, 1887.2799999662675, 2463.935000007041, 2377.3849999997765, 2713.625000033062, 1748.6749999807216, 1111.5850000060163, 1415.4950000229292, 1607.4749999679625, 1017.8150000283495, 1600.3299999865703, 3253.125000046566, 1016.7349999537691, 2073.030000028666, 2558.6849999963306, 4602.190000005066, 3649.0350000094622, 854.1449999902397]}, {"trials_total": 16, "trials_diatonic": 8, "trials_chromatic": 8, "swapped_total": 2, "shifted_total": 6, "diatonic_swapped": 2, "diatonic_shifted": 2, "diatonic_neither": 4, "chromatic_swapped": 0, "chromatic_shifted": 4, "chromatic_neither": 4, "decoys_total": 4, "decoys_diatonic_total": 2, "decoys_chromatic_total": 2, "decoys_correct": 4, "decoys_diatonic_correct": 2, "decoys_chromatic_correct": 2, "rt_diatonic": [1436.0749999759719, 1657.2150000138208, 1204.4299999834038, 1923.595000000205, 860.8649999951012, 1270.8650000276975, 1261.739999987185, 2975.480000022799], "rt_diatonic_swapped": [1923.595000000205, 1261.739999987185], "rt_diatonic_shifted": [1436.0749999759719, 1204.4299999834038], "rt_diatonic_neither": [1657.2150000138208, 860.8649999951012, 1270.8650000276975, 2975.480000022799], "rt_chromatic": [1399.6099999640137, 1143.7950000399724, 1858.7750000297092, 1075.5699999863282, 692.9799999925308, 1060.929999977816, 985.2299999911338, 1887.2799999662675], "rt_chromatic_swapped": [], "rt_chromatic_shifted": [1399.6099999640137, 1858.7750000297092, 1075.5699999863282, 692.9799999925308], "rt_chromatic_neither": [1143.7950000399724, 1060.929999977816, 985.2299999911338, 1887.2799999662675]}, {"trials_total": 16, "trials_diatonic": 8, "trials_chromatic": 8, "swapped_total": 2, "shifted_total": 2, "diatonic_swapped": 2, "diatonic_shifted": 1, "diatonic_neither": 5, "chromatic_swapped": 0, "chromatic_shifted": 1, "chromatic_neither": 7, "decoys_total": 4, "decoys_diatonic_total": 2, "decoys_chromatic_total": 2, "decoys_correct": 2, "decoys_diatonic_correct": 0, "decoys_chromatic_correct": 2, "rt_diatonic": [993.4299999731593, 2150.000000023283, 1975.2949999528937, 2338.835000002291, 1057.9150000121444, 537.8099999506958, 2678.375000017695, 2444.1099999821745], "rt_diatonic_swapped": [1975.2949999528937, 2678.375000017695], "rt_diatonic_shifted": [2338.835000002291], "rt_diatonic_neither": [993.4299999731593, 2150.000000023283, 1057.9150000121444, 537.8099999506958, 2444.1099999821745], "rt_chromatic": [1462.7049999544397, 2463.935000007041, 2377.3849999997765, 2713.625000033062, 1748.6749999807216, 1111.5850000060163, 1415.4950000229292, 1607.4749999679625], "rt_chromatic_swapped": [], "rt_chromatic_shifted": [1462.7049999544397], "rt_chromatic_neither": [2463.935000007041, 2377.3849999997765, 2713.625000033062, 1748.6749999807216, 1111.5850000060163, 1415.4950000229292, 1607.4749999679625]}, {"trials_total": 16, "trials_diatonic": 8, "trials_chromatic": 8, "swapped_total": 5, "shifted_total": 2, "diatonic_swapped": 4, "diatonic_shifted": 1, "diatonic_neither": 3, "chromatic_swapped": 1, "chromatic_shifted": 1, "chromatic_neither": 6, "decoys_total": 4, "decoys_diatonic_total": 2, "decoys_chromatic_total": 2, "decoys_correct": 3, "decoys_diatonic_correct": 1, "decoys_chromatic_correct": 2, "rt_diatonic": [1466.6699999943376, 968.0850000004284, 352.08500002045184, 1092.6750000216998, 1091.4199999533594, 2698.404999973718, 1509.2799999983981, 3247.819999989588], "rt_diatonic_swapped": [968.0850000004284, 352.08500002045184, 1091.4199999533594, 1509.2799999983981], "rt_diatonic_shifted": [2698.404999973718], "rt_diatonic_neither": [1466.6699999943376, 1092.6750000216998, 3247.819999989588], "rt_chromatic": [1017.8150000283495, 1600.3299999865703, 777.4299999582581, 3253.125000046566, 990.494999976363, 1016.7349999537691, 2073.030000028666, 2558.6849999963306], "rt_chromatic_swapped": [990.494999976363], "rt_chromatic_shifted": [777.4299999582581], "rt_chromatic_neither": [1017.8150000283495, 1600.3299999865703, 3253.125000046566, 1016.7349999537691, 2073.030000028666, 2558.6849999963306]}, {"trials_total": 16, "trials_diatonic": 8, "trials_chromatic": 8, "swapped_total": 7, "shifted_total": 1, "diatonic_swapped": 3, "diatonic_shifted": 0, "diatonic_neither": 5, "chromatic_swapped": 4, "chromatic_shifted": 1, "chromatic_neither": 3, "decoys_total": 4, "decoys_diatonic_total": 2, "decoys_chromatic_total": 2, "decoys_correct": 3, "decoys_diatonic_correct": 1, "decoys_chromatic_correct": 2, "rt_diatonic": [13469.604999991134, 1434.354999975767, 2568.1299999705516, 3249.2850000271574, 1653.7799999932759, 1290.0950000039302, 5224.645000009332, 1559.3600000138395], "rt_diatonic_swapped": [1434.354999975767, 1653.7799999932759, 1290.0950000039302], "rt_diatonic_shifted": [], "rt_diatonic_neither": [13469.604999991134, 2568.1299999705516, 3249.2850000271574, 5224.645000009332, 1559.3600000138395], "rt_chromatic": [4602.190000005066, 1944.8649999685585, 2109.82499999227, 3649.0350000094622, 1173.030000005383, 1200.5149999749847, 4831.375000008848, 854.1449999902397], "rt_chromatic_swapped": [2109.82499999227, 1173.030000005383, 1200.5149999749847, 4831.375000008848], "rt_chromatic_shifted": [1944.8649999685585], "rt_chromatic_neither": [4602.190000005066, 3649.0350000094622, 854.1449999902397]}], "trials_total": 80, "trials_diatonic": 40, "trials_chromatic": 40, "swapped_total": 21, "shifted_total": 14, "diatonic_swapped": 13, "diatonic_shifted": 6, "diatonic_neither": 21, "chromatic_swapped": 8, "chromatic_shifted": 8, "chromatic_neither": 24, "decoys_total": 20, "decoys_diatonic_total": 10, "decoys_chromatic_total": 10, "decoys_correct": 15, "decoys_diatonic_correct": 5, "decoys_chromatic_correct": 10, "rt_diatonic": 2352.991124994878, "rt_diatonic_swapped": 1413.1599999964237, "rt_diatonic_shifted": 2223.0674999785456, "rt_diatonic_neither": 2971.912380950969, "rt_chromatic": 1823.8556249969406, "rt_chromatic_swapped": 1855.431875002978, "rt_chromatic_shifted": 1294.8718749830732, "rt_chromatic_neither": 1989.6581249995506, "%_correct_decoys": 0.75, "%_swapped": 0.2625, "%_shifted": 0.175, "%_diatonic_swapped": 0.325, "%_diatonic_shifted": 0.15, "%_diatonic_neither": 0.525, "%_chromatic_swapped": 0.2, "%_chromatic_shifted": 0.2, "%_chromatic_neither": 0.6}}, {"id": "OVS032", "dir": "./data/OVS032/csv", "blocks": [{"dir": "./data/OVS032/csv/OVS032_block_0.json", "block": 0, "similarity": [{"rt": 2220.744999824092, "stimulus": "[A] option 1, [L] option 2, [G] neither", "key_press": 65, "name": "choice", "trial_type": "html-keyboard-response", "trial_index": 14, "time_elapsed": 113058, "internal_node_id": "0.0-14.0", "response": "1st", "certainty": "high", "char": "A", "melody_type": "diatonic", "order": ["swapped", "shifted"], "probe_pitches": [12, 9, 5, 2, 4, 0, -3, -5], "shifted_pitches": [12, 9, 5, 2, 3, 0, -3, -5], "swapped_pitches": [12, 9, 5, 4, 2, 0, -3, -5], "shift_direction": "down", "question_num": "01", "has_decoy": false, "subject": "OVS032", "sona": "120955", "block": 0, "time": "2020-06-24T19:06:04.467Z"}, {"rt": 916.9749999418855, "stimulus": "[A] option 1, [L] option 2, [G] neither", "key_press": 76, "name": "choice", "trial_type": "html-keyboard-response", "trial_index": 27, "time_elapsed": 136517, "internal_node_id": "0.0-27.0", "response": "2nd", "certainty": "high", "char": "L", "melody_type": "chromatic", "order": ["swapped", "shifted"], "probe_pitches": [6, 9, 11, 12, 8, 4, 3, -1], "shifted_pitches": [6, 9, 11, 12, 7, 4, 3, -1], "swapped_pitches": [6, 9, 11, 8, 12, 4, 3, -1], "shift_direction": "down", "question_num": "11", "has_decoy": false, "subject": "OVS032", "sona": "120955", "block": 0, "time": "2020-06-24T19:06:04.467Z"}]}, {"dir": "./data/OVS032/csv/OVS032_block_1.json", "block": 1, "similarity": [{"rt": 10889.98999982141, "stimulus": "[A] option 1, [L] option 2, [G] neither", "key_press": 65, "name": "choice", "trial_type": "html-keyboard-response", "trial_index": 11, "time_elapsed": 29918, "internal_node_id": "0.0-11.0", "subject": "OVS032", "sona": "120955", "block": 1, "time": "2020-06-24T19:13:37.563Z", "response": "1st", "certainty": "high", "char": "A", "melody_type": "chromatic", "order": ["swapped", "shifted"], "probe_pitches": [14, 12, 9, 6, 5, 7, 8, 10], "shifted_pitches": [14, 12, 9, 6, 5, 7, 8, 10], "swapped_pitches": [14, 12, 9, 5, 6, 7, 8, 10], "shift_direction": "down", "question_num": "01", "has_decoy": true, "decoy_position": "shifted"}, {"rt": 2809.5050000119954, "stimulus": "[A] option 1, [L] option 2, [G] neither", "key_press": 76, "name": "choice", "trial_type": "html-keyboard-response", "trial_index": 24, "time_elapsed": 51264, "internal_node_id": "0.0-24.0", "subject": "OVS032", "sona": "120955", "block": 1, "time": "2020-06-24T19:13:37.563Z", "response": "2nd", "certainty": "high", "char": "L", "melody_type": "diatonic", "order": ["shifted", "swapped"], "probe_pitches": [5, 4, 0, -1, -3, -5, 2, 7], "shifted_pitches": [5, 4, 0, -2, -3, -5, 2, 7], "swapped_pitches": [5, 4, 0, -3, -1, -5, 2, 7], "shift_direction": "down", "question_num": "11", "has_decoy": false}, {"rt": 1166.2500000093132, "stimulus": "[A] option 1, [L] option 2, [G] neither", "key_press": 65, "name": "choice", "trial_type": "html-keyboard-response", "trial_index": 37, "time_elapsed": 72180, "internal_node_id": "0.0-37.0", "subject": "OVS032", "sona": "120955", "block": 1, "time": "2020-06-24T19:13:37.563Z", "response": "1st", "certainty": "high", "char": "A", "melody_type": "diatonic", "order": ["swapped", "shifted"], "probe_pitches": [17, 14, 12, 16, 11, 7, 4, 5], "shifted_pitches": [17, 14, 12, 15, 11, 7, 4, 5], "swapped_pitches": [17, 14, 12, 11, 16, 7, 4, 5], "shift_direction": "down", "question_num": "21", "has_decoy": false}, {"rt": 20023.640000028536, "stimulus": "[A] option 1, [L] option 2, [G] neither", "key_press": 71, "name": "choice", "trial_type": "html-keyboard-response", "trial_index": 50, "time_elapsed": 114026, "internal_node_id": "0.0-50.0", "subject": "OVS032", "sona": "120955", "block": 1, "time": "2020-06-24T19:13:37.563Z", "response": "neither", "certainty": "high", "char": "G", "melody_type": "diatonic", "order": ["shifted", "swapped"], "probe_pitches": [2, 5, 7, 4, 0, -3, -1, -5], "shifted_pitches": [2, 5, 7, 4, 1, -3, -1, -5], "swapped_pitches": [2, 5, 7, 0, 4, -3, -1, -5], "shift_direction": "up", "question_num": "31", "has_decoy": false}, {"rt": 1316.73499988392, "stimulus": "[A] option 1, [L] option 2, [G] neither", "key_press": 65, "name": "choice", "trial_type": "html-keyboard-response", "trial_index": 63, "time_elapsed": 132477, "internal_node_id": "0.0-63.0", "subject": "OVS032", "sona": "120955", "block": 1, "time": "2020-06-24T19:13:37.563Z", "response": "1st", "certainty": "high", "char": "A", "melody_type": "chromatic", "order": ["swapped", "shifted"], "probe_pitches": [1, 4, 3, -1, 2, 5, 8, 10], "shifted_pitches": [1, 4, 3, -2, 2, 5, 8, 10], "swapped_pitches": [1, 4, 3, 2, -1, 5, 8, 10], "shift_direction": "down", "question_num": "41", "has_decoy": false}, {"rt": 724.0100000053644, "stimulus": "[A] option 1, [L] option 2, [G] neither", "key_press": 65, "name": "choice", "trial_type": "html-keyboard-response", "trial_index": 76, "time_elapsed": 150229, "internal_node_id": "0.0-76.0", "subject": "OVS032", "sona": "120955", "block": 1, "time": "2020-06-24T19:13:37.563Z", "response": "1st", "certainty": "high", "char": "A", "melody_type": "diatonic", "order": ["swapped", "shifted"], "probe_pitches": [2, -1, -5, -3, 0, 4, 5, 7], "shifted_pitches": [2, -1, -5, -4, 0, 4, 5, 7], "swapped_pitches": [2, -1, -5, 0, -3, 4, 5, 7], "shift_direction": "down", "question_num": "51", "has_decoy": false}, {"rt": 1165.6800000928342, "stimulus": "[A] option 1, [L] option 2, [G] neither", "key_press": 65, "name": "choice", "trial_type": "html-keyboard-response", "trial_index": 89, "time_elapsed": 168805, "internal_node_id": "0.0-89.0", "subject": "OVS032", "sona": "120955", "block": 1, "time": "2020-06-24T19:13:37.563Z", "response": "1st", "certainty": "high", "char": "A", "melody_type": "chromatic", "order": ["swapped", "shifted"], "probe_pitches": [16, 14, 12, 8, 5, 3, -1, 0], "shifted_pitches": [16, 14, 12, 8, 6, 3, -1, 0], "swapped_pitches": [16, 14, 12, 5, 8, 3, -1, 0], "shift_direction": "up", "question_num": "61", "has_decoy": false}, {"rt": 902.7950000017881, "stimulus": "[A] option 1, [L] option 2, [G] neither", "key_press": 65, "name": "choice", "trial_type": "html-keyboard-response", "trial_index": 102, "time_elapsed": 186713, "internal_node_id": "0.0-102.0", "subject": "OVS032", "sona": "120955", "block": 1, "time": "2020-06-24T19:13:37.563Z", "response": "1st", "certainty": "high", "char": "A", "melody_type": "chromatic", "order": ["shifted", "swapped"], "probe_pitches": [-2, 0, 2, 4, 6, 10, 13, 14], "shifted_pitches": [-2, 0, 2, 4, 5, 10, 13, 14], "swapped_pitches": [-2, 0, 2, 6, 4, 10, 13, 14], "shift_direction": "down", "question_num": "71", "has_decoy": false}, {"rt": 1836.7749999742955, "stimulus": "[A] option 1, [L] option 2, [G] neither", "key_press": 71, "name": "choice", "trial_type": "html-keyboard-response", "trial_index": 115, "time_elapsed": 208098, "internal_node_id": "0.0-115.0", "subject": "OVS032", "sona": "120955", "block": 1, "time": "2020-06-24T19:13:37.563Z", "response": "neither", "certainty": "high", "char": "G", "melody_type": "chromatic", "order": ["shifted", "swapped"], "probe_pitches": [-3, 1, 4, 0, -1, 3, 6, 10], "shifted_pitches": [-3, 1, 4, 0, -2, 3, 6, 10], "swapped_pitches": [-3, 1, 4, 0, -1, 3, 6, 10], "shift_direction": "down", "question_num": "81", "has_decoy": true, "decoy_position": "swapped"}, {"rt": 5705.915000056848, "stimulus": "[A] option 1, [L] option 2, [G] neither", "key_press": 71, "name": "choice", "trial_type": "html-keyboard-response", "trial_index": 128, "time_elapsed": 230828, "internal_node_id": "0.0-128.0", "subject": "OVS032", "sona": "120955", "block": 1, "time": "2020-06-24T19:13:37.563Z", "response": "neither", "certainty": "high", "char": "G", "melody_type": "diatonic", "order": ["shifted", "swapped"], "probe_pitches": [14, 17, 16, 12, 9, 11, 7, 5], "shifted_pitches": [14, 17, 16, 12, 10, 11, 7, 5], "swapped_pitches": [14, 17, 16, 9, 12, 11, 7, 5], "shift_direction": "up", "question_num": "91", "has_decoy": false}, {"rt": 872.2099999431521, "stimulus": "[A] option 1, [L] option 2, [G] neither", "key_press": 76, "name": "choice", "trial_type": "html-keyboard-response", "trial_index": 141, "time_elapsed": 249889, "internal_node_id": "0.0-141.0", "subject": "OVS032", "sona": "120955", "block": 1, "time": "2020-06-24T19:13:37.563Z", "response": "2nd", "certainty": "high", "char": "L", "melody_type": "diatonic", "order": ["swapped", "shifted"], "probe_pitches": [-3, 0, 4, 7, 5, 9, 12, 11], "shifted_pitches": [-3, 0, 4, 7, 5, 9, 12, 11], "swapped_pitches": [-3, 0, 4, 5, 7, 9, 12, 11], "shift_direction": "up", "question_num": "101", "has_decoy": true, "decoy_position": "shifted"}, {"rt": 573.9549999125302, "stimulus": "[A] option 1, [L] option 2, [G] neither", "key_press": 65, "name": "choice", "trial_type": "html-keyboard-response", "trial_index": 154, "time_elapsed": 267893, "internal_node_id": "0.0-154.0", "subject": "OVS032", "sona": "120955", "block": 1, "time": "2020-06-24T19:13:37.563Z", "response": "1st", "certainty": "high", "char": "A", "melody_type": "chromatic", "order": ["shifted", "swapped"], "probe_pitches": [7, 9, 13, 16, 12, 11, 8, 5], "shifted_pitches": [7, 9, 13, 15, 12, 11, 8, 5], "swapped_pitches": [7, 9, 13, 12, 16, 11, 8, 5], "shift_direction": "down", "question_num": "111", "has_decoy": false}, {"rt": 632.4149998836219, "stimulus": "[A] option 1, [L] option 2, [G] neither", "key_press": 76, "name": "choice", "trial_type": "html-keyboard-response", "trial_index": 167, "time_elapsed": 285576, "internal_node_id": "0.0-167.0", "subject": "OVS032", "sona": "120955", "block": 1, "time": "2020-06-24T19:13:37.563Z", "response": "2nd", "certainty": "high", "char": "L", "melody_type": "diatonic", "order": ["shifted", "swapped"], "probe_pitches": [14, 17, 16, 12, 9, 5, 4, 2], "shifted_pitches": [14, 17, 16, 12, 10, 5, 4, 2], "swapped_pitches": [14, 17, 16, 12, 9, 5, 4, 2], "shift_direction": "up", "question_num": "121", "has_decoy": true, "decoy_position": "swapped"}, {"rt": 459.67999985441566, "stimulus": "[A] option 1, [L] option 2, [G] neither", "key_press": 65, "name": "choice", "trial_type": "html-keyboard-response", "trial_index": 180, "time_elapsed": 303284, "internal_node_id": "0.0-180.0", "subject": "OVS032", "sona": "120955", "block": 1, "time": "2020-06-24T19:13:37.563Z", "response": "1st", "certainty": "high", "char": "A", "melody_type": "chromatic", "order": ["shifted", "swapped"], "probe_pitches": [-2, -1, -3, -5, -4, 0, 4, 5], "shifted_pitches": [-2, -1, -3, -6, -4, 0, 4, 5], "swapped_pitches": [-2, -1, -3, -4, -5, 0, 4, 5], "shift_direction": "down", "question_num": "131", "has_decoy": false}, {"rt": 684.7649998962879, "stimulus": "[A] option 1, [L] option 2, [G] neither", "key_press": 76, "name": "choice", "trial_type": "html-keyboard-response", "trial_index": 193, "time_elapsed": 320939, "internal_node_id": "0.0-193.0", "subject": "OVS032", "sona": "120955", "block": 1, "time": "2020-06-24T19:13:37.563Z", "response": "2nd", "certainty": "high", "char": "L", "melody_type": "chromatic", "order": ["shifted", "swapped"], "probe_pitches": [-4, -3, -1, 1, -2, -5, 0, 3], "shifted_pitches": [-4, -3, -1, 2, -2, -5, 0, 3], "swapped_pitches": [-4, -3, -1, -2, 1, -5, 0, 3], "shift_direction": "up", "question_num": "141", "has_decoy": false}, {"rt": 994.5050000678748, "stimulus": "[A] option 1, [L] option 2, [G] neither", "key_press": 76, "name": "choice", "trial_type": "html-keyboard-response", "trial_index": 206, "time_elapsed": 339541, "internal_node_id": "0.0-206.0", "subject": "OVS032", "sona": "120955", "block": 1, "time": "2020-06-24T19:13:37.563Z", "response": "2nd", "certainty": "high", "char": "L", "melody_type": "chromatic", "order": ["swapped", "shifted"], "probe_pitches": [10, 7, 11, 8, 12, 14, 16, 15], "shifted_pitches": [10, 7, 11, 8, 13, 14, 16, 15], "swapped_pitches": [10, 7, 11, 12, 8, 14, 16, 15], "shift_direction": "up", "question_num": "151", "has_decoy": false}, {"rt": 1167.7249998319894, "stimulus": "[A] option 1, [L] option 2, [G] neither", "key_press": 76, "name": "choice", "trial_type": "html-keyboard-response", "trial_index": 219, "time_elapsed": 358509, "internal_node_id": "0.0-219.0", "subject": "OVS032", "sona": "120955", "block": 1, "time": "2020-06-24T19:13:37.563Z", "response": "2nd", "certainty": "high", "char": "L", "melody_type": "diatonic", "order": ["swapped", "shifted"], "probe_pitches": [17, 16, 12, 14, 11, 9, 5, 7], "shifted_pitches": [17, 16, 12, 14, 10, 9, 5, 7], "swapped_pitches": [17, 16, 12, 11, 14, 9, 5, 7], "shift_direction": "down", "question_num": "161", "has_decoy": false}, {"rt": 640.3550000395626, "stimulus": "[A] option 1, [L] option 2, [G] neither", "key_press": 65, "name": "choice", "trial_type": "html-keyboard-response", "trial_index": 232, "time_elapsed": 378791, "internal_node_id": "0.0-232.0", "subject": "OVS032", "sona": "120955", "block": 1, "time": "2020-06-24T19:13:37.563Z", "response": "1st", "certainty": "high", "char": "A", "melody_type": "chromatic", "order": ["swapped", "shifted"], "probe_pitches": [3, -1, 2, 5, 8, 11, 15, 13], "shifted_pitches": [3, -1, 2, 5, 9, 11, 15, 13], "swapped_pitches": [3, -1, 2, 8, 5, 11, 15, 13], "shift_direction": "up", "question_num": "171", "has_decoy": false}, {"rt": 2400.8349999785423, "stimulus": "[A] option 1, [L] option 2, [G] neither", "key_press": 76, "name": "choice", "trial_type": "html-keyboard-response", "trial_index": 245, "time_elapsed": 398827, "internal_node_id": "0.0-245.0", "subject": "OVS032", "sona": "120955", "block": 1, "time": "2020-06-24T19:13:37.563Z", "response": "2nd", "certainty": "high", "char": "L", "melody_type": "diatonic", "order": ["swapped", "shifted"], "probe_pitches": [12, 9, 11, 14, 17, 16, 7, 4], "shifted_pitches": [12, 9, 11, 15, 17, 16, 7, 4], "swapped_pitches": [12, 9, 11, 17, 14, 16, 7, 4], "shift_direction": "up", "question_num": "181", "has_decoy": false}, {"rt": 472.3600000143051, "stimulus": "[A] option 1, [L] option 2, [G] neither", "key_press": 65, "name": "choice", "trial_type": "html-keyboard-response", "trial_index": 258, "time_elapsed": 416484, "internal_node_id": "0.0-258.0", "subject": "OVS032", "sona": "120955", "block": 1, "time": "2020-06-24T19:13:37.563Z", "response": "1st", "certainty": "high", "char": "A", "melody_type": "diatonic", "order": ["shifted", "swapped"], "probe_pitches": [11, 7, 4, 0, 2, 5, 9, 12], "shifted_pitches": [11, 7, 4, 0, 3, 5, 9, 12], "swapped_pitches": [11, 7, 4, 2, 0, 5, 9, 12], "shift_direction": "up", "question_num": "191", "has_decoy": false}]}, {"dir": "./data/OVS032/csv/OVS032_block_2.json", "block": 2, "similarity": [{"rt": 1872.6699999533594, "stimulus": "[A] option 1, [L] option 2, [G] neither", "key_press": 65, "name": "choice", "trial_type": "html-keyboard-response", "trial_index": 11, "time_elapsed": 23187, "internal_node_id": "0.0-11.0", "subject": "OVS032", "sona": "120955", "block": 2, "time": "2020-06-24T19:20:59.217Z", "response": "1st", "certainty": "high", "char": "A", "melody_type": "chromatic", "order": ["swapped", "shifted"], "probe_pitches": [5, 9, 7, 6, 3, 0, 4, 8], "shifted_pitches": [5, 9, 7, 6, 2, 0, 4, 8], "swapped_pitches": [5, 9, 7, 6, 3, 0, 4, 8], "shift_direction": "down", "question_num": "01", "has_decoy": true, "decoy_position": "swapped"}, {"rt": 820.3350000549108, "stimulus": "[A] option 1, [L] option 2, [G] neither", "key_press": 65, "name": "choice", "trial_type": "html-keyboard-response", "trial_index": 24, "time_elapsed": 40978, "internal_node_id": "0.0-24.0", "subject": "OVS032", "sona": "120955", "block": 2, "time": "2020-06-24T19:20:59.217Z", "response": "1st", "certainty": "high", "char": "A", "melody_type": "chromatic", "order": ["swapped", "shifted"], "probe_pitches": [11, 9, 7, 5, 1, -1, -4, -5], "shifted_pitches": [11, 9, 7, 5, 0, -1, -4, -5], "swapped_pitches": [11, 9, 7, 1, 5, -1, -4, -5], "shift_direction": "down", "question_num": "11", "has_decoy": false}, {"rt": 1640.129999956116, "stimulus": "[A] option 1, [L] option 2, [G] neither", "key_press": 65, "name": "choice", "trial_type": "html-keyboard-response", "trial_index": 37, "time_elapsed": 60050, "internal_node_id": "0.0-37.0", "subject": "OVS032", "sona": "120955", "block": 2, "time": "2020-06-24T19:20:59.217Z", "response": "1st", "certainty": "high", "char": "A", "melody_type": "chromatic", "order": ["swapped", "shifted"], "probe_pitches": [11, 14, 12, 8, 10, 9, 13, 16], "shifted_pitches": [11, 14, 12, 7, 10, 9, 13, 16], "swapped_pitches": [11, 14, 12, 10, 8, 9, 13, 16], "shift_direction": "down", "question_num": "21", "has_decoy": false}, {"rt": 3318.9250000286847, "stimulus": "[A] option 1, [L] option 2, [G] neither", "key_press": 71, "name": "choice", "trial_type": "html-keyboard-response", "trial_index": 50, "time_elapsed": 80345, "internal_node_id": "0.0-50.0", "subject": "OVS032", "sona": "120955", "block": 2, "time": "2020-06-24T19:20:59.217Z", "response": "neither", "certainty": "high", "char": "G", "melody_type": "diatonic", "order": ["swapped", "shifted"], "probe_pitches": [17, 14, 12, 9, 5, 4, 0, -1], "shifted_pitches": [17, 14, 12, 8, 5, 4, 0, -1], "swapped_pitches": [17, 14, 12, 5, 9, 4, 0, -1], "shift_direction": "down", "question_num": "31", "has_decoy": false}, {"rt": 728.9649997837842, "stimulus": "[A] option 1, [L] option 2, [G] neither", "key_press": 65, "name": "choice", "trial_type": "html-keyboard-response", "trial_index": 63, "time_elapsed": 98108, "internal_node_id": "0.0-63.0", "subject": "OVS032", "sona": "120955", "block": 2, "time": "2020-06-24T19:20:59.217Z", "response": "1st", "certainty": "high", "char": "A", "melody_type": "diatonic", "order": ["swapped", "shifted"], "probe_pitches": [0, -3, -1, 2, 5, 9, 7, 11], "shifted_pitches": [0, -3, -1, 3, 5, 9, 7, 11], "swapped_pitches": [0, -3, -1, 5, 2, 9, 7, 11], "shift_direction": "up", "question_num": "41", "has_decoy": false}, {"rt": 440.85000013001263, "stimulus": "[A] option 1, [L] option 2, [G] neither", "key_press": 76, "name": "choice", "trial_type": "html-keyboard-response", "trial_index": 76, "time_elapsed": 116994, "internal_node_id": "0.0-76.0", "subject": "OVS032", "sona": "120955", "block": 2, "time": "2020-06-24T19:20:59.217Z", "response": "2nd", "certainty": "high", "char": "L", "melody_type": "diatonic", "order": ["shifted", "swapped"], "probe_pitches": [5, 4, 0, -1, -3, -5, 2, 7], "shifted_pitches": [5, 4, 0, -1, -2, -5, 2, 7], "swapped_pitches": [5, 4, 0, -3, -1, -5, 2, 7], "shift_direction": "up", "question_num": "51", "has_decoy": false}, {"rt": 1993.4699998702854, "stimulus": "[A] option 1, [L] option 2, [G] neither", "key_press": 71, "name": "choice", "trial_type": "html-keyboard-response", "trial_index": 89, "time_elapsed": 136231, "internal_node_id": "0.0-89.0", "subject": "OVS032", "sona": "120955", "block": 2, "time": "2020-06-24T19:20:59.217Z", "response": "neither", "certainty": "high", "char": "G", "melody_type": "diatonic", "order": ["swapped", "shifted"], "probe_pitches": [-5, -3, 0, -1, 2, 4, 7, 11], "shifted_pitches": [-5, -3, 0, -2, 2, 4, 7, 11], "swapped_pitches": [-5, -3, 0, -1, 2, 4, 7, 11], "shift_direction": "down", "question_num": "61", "has_decoy": true, "decoy_position": "swapped"}, {"rt": 3100.3449999261647, "stimulus": "[A] option 1, [L] option 2, [G] neither", "key_press": 71, "name": "choice", "trial_type": "html-keyboard-response", "trial_index": 102, "time_elapsed": 156481, "internal_node_id": "0.0-102.0", "subject": "OVS032", "sona": "120955", "block": 2, "time": "2020-06-24T19:20:59.217Z", "response": "neither", "certainty": "high", "char": "G", "melody_type": "diatonic", "order": ["shifted", "swapped"], "probe_pitches": [16, 14, 11, 9, 12, 7, 4, 2], "shifted_pitches": [16, 14, 11, 8, 12, 7, 4, 2], "swapped_pitches": [16, 14, 11, 12, 9, 7, 4, 2], "shift_direction": "down", "question_num": "71", "has_decoy": false}, {"rt": 804.1850000154227, "stimulus": "[A] option 1, [L] option 2, [G] neither", "key_press": 76, "name": "choice", "trial_type": "html-keyboard-response", "trial_index": 115, "time_elapsed": 174486, "internal_node_id": "0.0-115.0", "subject": "OVS032", "sona": "120955", "block": 2, "time": "2020-06-24T19:20:59.217Z", "response": "2nd", "certainty": "high", "char": "L", "melody_type": "chromatic", "order": ["shifted", "swapped"], "probe_pitches": [3, 1, -2, -5, -1, 0, 4, 2], "shifted_pitches": [3, 1, -2, -4, -1, 0, 4, 2], "swapped_pitches": [3, 1, -2, -1, -5, 0, 4, 2], "shift_direction": "up", "question_num": "81", "has_decoy": false}, {"rt": 560.6500001158565, "stimulus": "[A] option 1, [L] option 2, [G] neither", "key_press": 76, "name": "choice", "trial_type": "html-keyboard-response", "trial_index": 128, "time_elapsed": 193115, "internal_node_id": "0.0-128.0", "subject": "OVS032", "sona": "120955", "block": 2, "time": "2020-06-24T19:20:59.217Z", "response": "2nd", "certainty": "high", "char": "L", "melody_type": "diatonic", "order": ["shifted", "swapped"], "probe_pitches": [-5, -3, 0, 2, -1, 4, 7, 5], "shifted_pitches": [-5, -3, 0, 2, -2, 4, 7, 5], "swapped_pitches": [-5, -3, 0, -1, 2, 4, 7, 5], "shift_direction": "down", "question_num": "91", "has_decoy": false}, {"rt": 757.6499998103827, "stimulus": "[A] option 1, [L] option 2, [G] neither", "key_press": 65, "name": "choice", "trial_type": "html-keyboard-response", "trial_index": 141, "time_elapsed": 211023, "internal_node_id": "0.0-141.0", "subject": "OVS032", "sona": "120955", "block": 2, "time": "2020-06-24T19:20:59.217Z", "response": "1st", "certainty": "high", "char": "A", "melody_type": "chromatic", "order": ["swapped", "shifted"], "probe_pitches": [-2, 1, 2, 4, 0, 3, 6, 9], "shifted_pitches": [-2, 1, 2, 5, 0, 3, 6, 9], "swapped_pitches": [-2, 1, 2, 0, 4, 3, 6, 9], "shift_direction": "up", "question_num": "101", "has_decoy": false}, {"rt": 1911.4300000946969, "stimulus": "[A] option 1, [L] option 2, [G] neither", "key_press": 71, "name": "choice", "trial_type": "html-keyboard-response", "trial_index": 154, "time_elapsed": 231481, "internal_node_id": "0.0-154.0", "subject": "OVS032", "sona": "120955", "block": 2, "time": "2020-06-24T19:20:59.217Z", "response": "neither", "certainty": "high", "char": "G", "melody_type": "diatonic", "order": ["shifted", "swapped"], "probe_pitches": [2, -1, -5, -3, 0, 4, 5, 7], "shifted_pitches": [2, -1, -5, -3, 1, 4, 5, 7], "swapped_pitches": [2, -1, -5, 0, -3, 4, 5, 7], "shift_direction": "up", "question_num": "111", "has_decoy": false}, {"rt": 518.5149998869747, "stimulus": "[A] option 1, [L] option 2, [G] neither", "key_press": 65, "name": "choice", "trial_type": "html-keyboard-response", "trial_index": 167, "time_elapsed": 249157, "internal_node_id": "0.0-167.0", "subject": "OVS032", "sona": "120955", "block": 2, "time": "2020-06-24T19:20:59.217Z", "response": "1st", "certainty": "high", "char": "A", "melody_type": "diatonic", "order": ["swapped", "shifted"], "probe_pitches": [4, 0, -1, -5, -3, 2, 5, 7], "shifted_pitches": [4, 0, -1, -5, -4, 2, 5, 7], "swapped_pitches": [4, 0, -1, -3, -5, 2, 5, 7], "shift_direction": "down", "question_num": "121", "has_decoy": false}, {"rt": 615.